participant_id,block,block_number,trial_number,timestamp_ms,left_option_shape,right_option_shape,left_option_prob,right_option_prob,selected_option,selected_shape,response_time_ms,feedback,points_earned,total_points,state,state_duration_ms,is_practice,source_file
PG14,Practice,0,1,121508,circle,square,0.2,0.8,,,,,0,0,5,0,TRUE,participant_PG14.csv
PG14,Practice,0,1,122516,circle,square,0.2,0.8,,,,,0,0,5,1008,TRUE,participant_PG14.csv
PG14,Practice,0,2,124552,square,circle,0.8,0.2,,,,,0,0,5,0,TRUE,participant_PG14.csv
PG14,Practice,0,2,125563,square,circle,0.8,0.2,,,,,0,0,5,1011,TRUE,participant_PG14.csv
PG14,Practice,0,3,127637,circle,square,0.2,0.8,1,square,32,positive,0,0,5,1011,TRUE,participant_PG14.csv
PG14,Practice,0,4,129739,square,circle,0.8,0.2,0,square,66,positive,0,0,5,1008,TRUE,participant_PG14.csv
PG14,Practice,0,5,131770,square,circle,0.8,0.2,,,,,0,0,5,0,TRUE,participant_PG14.csv
PG14,Practice,0,5,132778,square,circle,0.8,0.2,,,,,0,0,5,1007,TRUE,participant_PG14.csv
PG14,Practice,0,6,134818,circle,square,0.2,0.8,,,,,0,0,5,0,TRUE,participant_PG14.csv
PG14,Practice,0,6,135833,circle,square,0.2,0.8,,,,,0,0,5,1015,TRUE,participant_PG14.csv
PG14,Practice,0,7,137870,square,circle,0.8,0.2,,,,,0,0,5,0,TRUE,participant_PG14.csv
PG14,Practice,0,7,138884,square,circle,0.8,0.2,,,,,0,0,5,1013,TRUE,participant_PG14.csv
PG14,Practice,0,8,141463,square,circle,0.8,0.2,0,square,539,positive,0,0,5,1014,TRUE,participant_PG14.csv
PG14,Practice,0,9,144073,square,circle,0.8,0.2,0,square,567,positive,0,0,5,1007,TRUE,participant_PG14.csv
PG14,Practice,0,10,146570,square,circle,0.8,0.2,0,square,461,positive,0,0,5,1012,TRUE,participant_PG14.csv
PG14,Practice,0,11,148929,square,circle,0.8,0.2,0,square,315,positive,0,0,5,1013,TRUE,participant_PG14.csv
PG14,Practice,0,12,151365,circle,square,0.2,0.8,1,square,398,positive,0,0,5,1012,TRUE,participant_PG14.csv
PG14,Practice,0,13,153914,square,circle,0.8,0.2,0,square,509,positive,0,0,5,1010,TRUE,participant_PG14.csv
PG14,Practice,0,14,155943,circle,square,0.2,0.8,,,,,0,0,5,0,TRUE,participant_PG14.csv
PG14,Practice,0,14,156953,circle,square,0.2,0.8,,,,,0,0,5,1009,TRUE,participant_PG14.csv
PG14,Practice,0,15,159499,circle,square,0.2,0.8,1,square,526,negative,0,0,5,1003,TRUE,participant_PG14.csv
PG14,Practice,0,16,162203,square,circle,0.8,0.2,0,square,666,positive,0,0,5,1007,TRUE,participant_PG14.csv
PG14,Practice,0,17,164915,circle,square,0.2,0.8,1,square,678,positive,0,0,5,1007,TRUE,participant_PG14.csv
PG14,Practice,0,18,167568,square,circle,0.8,0.2,0,square,612,positive,0,0,5,1011,TRUE,participant_PG14.csv
PG14,Practice,0,19,170023,circle,square,0.2,0.8,1,square,417,positive,0,0,5,1011,TRUE,participant_PG14.csv
PG14,Practice,0,20,172408,square,circle,0.8,0.2,0,square,345,positive,0,0,5,1009,TRUE,participant_PG14.csv
PG14,80/20,1,1,208907,circle,square,0.2,0.8,1,square,893,negative,-0.25,-0.25,5,1004,FALSE,participant_PG14.csv
PG14,80/20,1,2,211320,square,circle,0.8,0.2,0,square,380,positive,0.5,0.25,5,1007,FALSE,participant_PG14.csv
PG14,80/20,1,3,213625,square,circle,0.8,0.2,0,square,265,positive,0.5,0.75,5,1015,FALSE,participant_PG14.csv
PG14,80/20,1,4,216520,circle,square,0.2,0.8,1,square,874,positive,0.5,1.25,5,1003,FALSE,participant_PG14.csv
PG14,80/20,1,5,218811,circle,square,0.2,0.8,1,square,252,positive,0.5,1.75,5,1012,FALSE,participant_PG14.csv
PG14,80/20,1,6,221161,square,circle,0.8,0.2,0,square,314,negative,-0.25,1.5,5,1005,FALSE,participant_PG14.csv
PG14,80/20,1,7,223463,circle,square,0.2,0.8,1,square,263,negative,-0.25,1.25,5,1004,FALSE,participant_PG14.csv
PG14,80/20,1,8,225523,circle,square,0.2,0.8,1,square,32,positive,0.5,1.75,5,1001,FALSE,participant_PG14.csv
PG14,80/20,1,9,227873,square,circle,0.8,0.2,0,square,318,positive,0.5,2.25,5,1014,FALSE,participant_PG14.csv
PG14,80/20,1,10,230162,square,circle,0.8,0.2,0,square,247,positive,0.5,2.75,5,1010,FALSE,participant_PG14.csv
PG14,80/20,1,11,232426,square,circle,0.8,0.2,0,square,217,negative,-0.25,2.5,5,1014,FALSE,participant_PG14.csv
PG14,80/20,1,12,234697,circle,square,0.2,0.8,1,square,232,positive,0.5,3,5,1010,FALSE,participant_PG14.csv
PG14,80/20,1,13,236988,circle,square,0.2,0.8,1,square,248,positive,0.5,3.5,5,1013,FALSE,participant_PG14.csv
PG14,80/20,1,14,239297,circle,square,0.2,0.8,0,circle,263,negative,-0.25,3.25,5,1012,FALSE,participant_PG14.csv
PG14,80/20,1,15,241771,circle,square,0.2,0.8,1,square,429,positive,0.5,3.75,5,1015,FALSE,participant_PG14.csv
PG14,80/20,1,16,244225,square,circle,0.8,0.2,0,square,414,positive,0.5,4.25,5,1013,FALSE,participant_PG14.csv
PG14,80/20,1,17,246687,square,circle,0.8,0.2,0,square,429,positive,0.5,4.75,5,1012,FALSE,participant_PG14.csv
PG14,80/20,1,18,249110,circle,square,0.2,0.8,1,square,396,positive,0.5,5.25,5,1006,FALSE,participant_PG14.csv
PG14,80/20,1,19,251474,circle,square,0.2,0.8,1,square,332,positive,0.5,5.75,5,1011,FALSE,participant_PG14.csv
PG14,80/20,1,20,253738,circle,square,0.2,0.8,1,square,232,positive,0.5,6.25,5,1001,FALSE,participant_PG14.csv
PG14,80/20,1,21,256029,circle,square,0.2,0.8,1,square,249,negative,-0.25,6,5,1010,FALSE,participant_PG14.csv
PG14,80/20,1,22,258364,square,circle,0.8,0.2,0,square,300,positive,0.5,6.5,5,1008,FALSE,participant_PG14.csv
PG14,80/20,1,23,260622,square,circle,0.8,0.2,0,square,216,positive,0.5,7,5,1011,FALSE,participant_PG14.csv
PG14,80/20,1,24,262977,circle,square,0.2,0.8,1,square,326,negative,-0.25,6.75,5,1013,FALSE,participant_PG14.csv
PG14,80/20,1,25,265271,circle,square,0.2,0.8,1,square,263,positive,0.5,7.25,5,1006,FALSE,participant_PG14.csv
PG14,80/20,1,26,267507,circle,square,0.2,0.8,1,square,210,negative,-0.25,7,5,1003,FALSE,participant_PG14.csv
PG14,80/20,1,27,269804,square,circle,0.8,0.2,0,square,245,positive,0.5,7.5,5,1015,FALSE,participant_PG14.csv
PG14,80/20,1,28,272065,square,circle,0.8,0.2,0,square,229,positive,0.5,8,5,1014,FALSE,participant_PG14.csv
PG14,80/20,1,29,274349,square,circle,0.8,0.2,0,square,250,positive,0.5,8.5,5,1013,FALSE,participant_PG14.csv
PG14,80/20,1,30,276648,square,circle,0.8,0.2,0,square,264,negative,-0.25,8.25,5,1012,FALSE,participant_PG14.csv
PG14,80/20,1,31,279034,circle,square,0.2,0.8,0,circle,363,negative,-0.25,8,5,1001,FALSE,participant_PG14.csv
PG14,80/20,1,32,281205,circle,square,0.2,0.8,1,square,131,negative,-0.25,7.75,5,1012,FALSE,participant_PG14.csv
PG14,80/20,1,33,283379,circle,square,0.2,0.8,1,square,129,negative,-0.25,7.5,5,1012,FALSE,participant_PG14.csv
PG14,80/20,1,34,285753,circle,square,0.2,0.8,0,circle,346,negative,-0.25,7.25,5,1001,FALSE,participant_PG14.csv
PG14,80/20,1,35,288154,square,circle,0.8,0.2,0,square,359,positive,0.5,7.75,5,1013,FALSE,participant_PG14.csv
PG14,80/20,1,36,290759,circle,square,0.2,0.8,1,square,576,positive,0.5,8.25,5,1003,FALSE,participant_PG14.csv
PG14,80/20,1,37,293204,square,circle,0.8,0.2,0,square,411,positive,0.5,8.75,5,1010,FALSE,participant_PG14.csv
PG14,80/20,1,38,295742,square,circle,0.8,0.2,0,square,501,positive,0.5,9.25,5,1011,FALSE,participant_PG14.csv
PG14,80/20,1,39,298652,circle,square,0.2,0.8,1,square,880,negative,-0.25,9,5,1004,FALSE,participant_PG14.csv
PG14,80/20,1,40,301252,square,circle,0.8,0.2,0,square,559,negative,-0.25,8.75,5,1008,FALSE,participant_PG14.csv
PG14,80/20,1,41,303323,square,circle,0.8,0.2,0,square,34,positive,0.5,9.25,5,1010,FALSE,participant_PG14.csv
PG14,80/20,1,42,305654,square,circle,0.8,0.2,0,square,294,positive,0.5,9.75,5,1009,FALSE,participant_PG14.csv
PG14,80/20,1,43,308131,square,circle,0.8,0.2,0,square,449,negative,-0.25,9.5,5,1000,FALSE,participant_PG14.csv
PG14,80/20,1,44,310231,circle,square,0.2,0.8,1,square,65,negative,-0.25,9.25,5,1010,FALSE,participant_PG14.csv
PG14,80/20,1,45,312419,square,circle,0.8,0.2,0,square,147,positive,0.5,9.75,5,1006,FALSE,participant_PG14.csv
PG14,80/20,1,46,314686,square,circle,0.8,0.2,0,square,249,negative,-0.25,9.5,5,1004,FALSE,participant_PG14.csv
PG14,80/20,1,47,317091,circle,square,0.2,0.8,1,square,365,positive,0.5,10,5,1010,FALSE,participant_PG14.csv
PG14,80/20,1,48,319549,circle,square,0.2,0.8,0,circle,410,negative,-0.25,9.75,5,1010,FALSE,participant_PG14.csv
PG14,80/20,1,49,321710,square,circle,0.8,0.2,0,square,117,positive,0.5,10.25,5,1015,FALSE,participant_PG14.csv
PG14,80/20,1,50,323746,square,circle,0.8,0.2,,,,,0,10.25,5,0,FALSE,participant_PG14.csv
PG14,80/20,1,50,324756,square,circle,0.8,0.2,,,,,0,10.25,5,1009,FALSE,participant_PG14.csv
PG14,80/20,1,51,326901,circle,square,0.2,0.8,1,square,116,positive,0.5,10.75,5,1007,FALSE,participant_PG14.csv
PG14,80/20,1,52,329288,square,circle,0.8,0.2,0,square,346,positive,0.5,11.25,5,1015,FALSE,participant_PG14.csv
PG14,80/20,1,53,331337,circle,square,0.2,0.8,1,square,16,positive,0.5,11.75,5,1009,FALSE,participant_PG14.csv
PG14,80/20,1,54,333442,circle,square,0.2,0.8,1,square,64,positive,0.5,12.25,5,1013,FALSE,participant_PG14.csv
PG14,80/20,1,55,335701,circle,square,0.2,0.8,1,square,219,positive,0.5,12.75,5,1009,FALSE,participant_PG14.csv
PG14,80/20,1,56,337891,circle,square,0.2,0.8,1,square,149,positive,0.5,13.25,5,1010,FALSE,participant_PG14.csv
PG14,80/20,1,57,339960,circle,square,0.2,0.8,1,square,48,positive,0.5,13.75,5,1001,FALSE,participant_PG14.csv
PG14,80/20,1,58,342296,square,circle,0.8,0.2,0,square,299,positive,0.5,14.25,5,1012,FALSE,participant_PG14.csv
PG14,80/20,1,59,344417,square,circle,0.8,0.2,0,square,83,positive,0.5,14.75,5,1006,FALSE,participant_PG14.csv
PG14,80/20,1,60,346846,square,circle,0.8,0.2,0,square,396,positive,0.5,15.25,5,1010,FALSE,participant_PG14.csv
PG14,50/50,2,1,356609,circle,square,0.5,0.5,1,square,733,negative,-0.25,15,5,1003,FALSE,participant_PG14.csv
PG14,50/50,2,2,358849,circle,square,0.5,0.5,1,square,217,positive,0.5,15.5,5,1009,FALSE,participant_PG14.csv
PG14,50/50,2,3,361876,circle,square,0.5,0.5,1,square,981,positive,0.5,16,5,1014,FALSE,participant_PG14.csv
PG14,50/50,2,4,364009,square,circle,0.5,0.5,0,square,99,negative,-0.25,15.75,5,1000,FALSE,participant_PG14.csv
PG14,50/50,2,5,366206,circle,square,0.5,0.5,1,square,166,negative,-0.25,15.5,5,1013,FALSE,participant_PG14.csv
PG14,50/50,2,6,368573,circle,square,0.5,0.5,1,square,332,negative,-0.25,15.25,5,1014,FALSE,participant_PG14.csv
PG14,50/50,2,7,371053,circle,square,0.5,0.5,0,circle,444,positive,0.5,15.75,5,1010,FALSE,participant_PG14.csv
PG14,50/50,2,8,373280,circle,square,0.5,0.5,0,circle,203,negative,-0.25,15.5,5,1002,FALSE,participant_PG14.csv
PG14,50/50,2,9,375741,square,circle,0.5,0.5,0,square,416,negative,-0.25,15.25,5,1017,FALSE,participant_PG14.csv
PG14,50/50,2,10,378140,square,circle,0.5,0.5,1,circle,363,positive,0.5,15.75,5,1010,FALSE,participant_PG14.csv
PG14,50/50,2,11,380461,square,circle,0.5,0.5,1,circle,294,negative,-0.25,15.5,5,1001,FALSE,participant_PG14.csv
PG14,50/50,2,12,382729,square,circle,0.5,0.5,1,circle,230,negative,-0.25,15.25,5,1009,FALSE,participant_PG14.csv
PG14,50/50,2,13,384873,circle,square,0.5,0.5,1,square,113,negative,-0.25,15,5,1000,FALSE,participant_PG14.csv
PG14,50/50,2,14,387173,circle,square,0.5,0.5,1,square,267,positive,0.5,15.5,5,1014,FALSE,participant_PG14.csv
PG14,50/50,2,15,389274,circle,square,0.5,0.5,1,square,68,positive,0.5,16,5,1011,FALSE,participant_PG14.csv
PG14,50/50,2,16,391489,circle,square,0.5,0.5,1,square,182,negative,-0.25,15.75,5,1014,FALSE,participant_PG14.csv
PG14,50/50,2,17,393835,circle,square,0.5,0.5,1,square,314,positive,0.5,16.25,5,1012,FALSE,participant_PG14.csv
PG14,50/50,2,18,396016,circle,square,0.5,0.5,1,square,148,negative,-0.25,16,5,1011,FALSE,participant_PG14.csv
PG14,50/50,2,19,398321,square,circle,0.5,0.5,0,square,261,positive,0.5,16.5,5,1010,FALSE,participant_PG14.csv
PG14,50/50,2,20,400386,circle,square,0.5,0.5,1,square,32,positive,0.5,17,5,1010,FALSE,participant_PG14.csv
PG14,50/50,2,21,402769,square,circle,0.5,0.5,0,square,350,negative,-0.25,16.75,5,1002,FALSE,participant_PG14.csv
PG14,50/50,2,22,405007,circle,square,0.5,0.5,1,square,213,negative,-0.25,16.5,5,1007,FALSE,participant_PG14.csv
PG14,50/50,2,23,407053,circle,square,0.5,0.5,,,,,0,16.5,5,0,FALSE,participant_PG14.csv
PG14,50/50,2,23,408068,circle,square,0.5,0.5,,,,,0,16.5,5,1014,FALSE,participant_PG14.csv
PG14,50/50,2,24,410267,circle,square,0.5,0.5,1,square,166,negative,-0.25,16.25,5,1011,FALSE,participant_PG14.csv
PG14,50/50,2,25,412302,square,circle,0.5,0.5,,,,,0,16.25,5,0,FALSE,participant_PG14.csv
PG14,50/50,2,25,413302,square,circle,0.5,0.5,,,,,0,16.25,5,1000,FALSE,participant_PG14.csv
PG14,50/50,2,26,415533,circle,square,0.5,0.5,1,square,201,negative,-0.25,16,5,1012,FALSE,participant_PG14.csv
PG14,50/50,2,27,417685,square,circle,0.5,0.5,0,square,114,positive,0.5,16.5,5,1010,FALSE,participant_PG14.csv
PG14,50/50,2,28,419954,square,circle,0.5,0.5,0,square,229,negative,-0.25,16.25,5,1009,FALSE,participant_PG14.csv
PG14,50/50,2,29,422536,square,circle,0.5,0.5,0,square,548,negative,-0.25,16,5,1006,FALSE,participant_PG14.csv
PG14,50/50,2,30,425452,circle,square,0.5,0.5,1,square,891,positive,0.5,16.5,5,1006,FALSE,participant_PG14.csv
PG14,50/50,2,31,427976,square,circle,0.5,0.5,0,square,483,negative,-0.25,16.25,5,1010,FALSE,participant_PG14.csv
PG14,50/50,2,32,430079,circle,square,0.5,0.5,1,square,66,positive,0.5,16.75,5,1010,FALSE,participant_PG14.csv
PG14,50/50,2,33,432300,circle,square,0.5,0.5,1,square,185,negative,-0.25,16.5,5,1013,FALSE,participant_PG14.csv
PG14,50/50,2,34,434396,circle,square,0.5,0.5,0,circle,50,positive,0.5,17,5,1013,FALSE,participant_PG14.csv
PG14,50/50,2,35,436596,circle,square,0.5,0.5,0,circle,165,negative,-0.25,16.75,5,1002,FALSE,participant_PG14.csv
PG14,50/50,2,36,438650,circle,square,0.5,0.5,1,square,16,negative,-0.25,16.5,5,1004,FALSE,participant_PG14.csv
PG14,50/50,2,37,440930,circle,square,0.5,0.5,0,circle,236,negative,-0.25,16.25,5,1011,FALSE,participant_PG14.csv
PG14,50/50,2,38,443113,circle,square,0.5,0.5,1,square,149,negative,-0.25,16,5,1011,FALSE,participant_PG14.csv
PG14,50/50,2,39,445244,circle,square,0.5,0.5,1,square,98,positive,0.5,16.5,5,1008,FALSE,participant_PG14.csv
PG14,50/50,2,40,447380,circle,square,0.5,0.5,1,square,100,positive,0.5,17,5,1014,FALSE,participant_PG14.csv
PG14,50/50,2,41,449561,square,circle,0.5,0.5,0,square,146,negative,-0.25,16.75,5,1010,FALSE,participant_PG14.csv
PG14,50/50,2,42,451762,circle,square,0.5,0.5,1,square,163,positive,0.5,17.25,5,1009,FALSE,participant_PG14.csv
PG14,50/50,2,43,453865,circle,square,0.5,0.5,1,square,66,negative,-0.25,17,5,1012,FALSE,participant_PG14.csv
PG14,50/50,2,44,455950,circle,square,0.5,0.5,1,square,49,positive,0.5,17.5,5,1009,FALSE,participant_PG14.csv
PG14,50/50,2,45,458244,square,circle,0.5,0.5,0,square,252,positive,0.5,18,5,1011,FALSE,participant_PG14.csv
PG14,50/50,2,46,460383,circle,square,0.5,0.5,1,square,116,negative,-0.25,17.75,5,1004,FALSE,participant_PG14.csv
PG14,50/50,2,47,462516,circle,square,0.5,0.5,1,square,83,positive,0.5,18.25,5,1017,FALSE,participant_PG14.csv
PG14,50/50,2,48,464614,circle,square,0.5,0.5,1,square,49,positive,0.5,18.75,5,1016,FALSE,participant_PG14.csv
PG14,50/50,2,49,466691,circle,square,0.5,0.5,1,square,49,negative,-0.25,18.5,5,1007,FALSE,participant_PG14.csv
PG14,50/50,2,50,468928,circle,square,0.5,0.5,1,square,212,negative,-0.25,18.25,5,1009,FALSE,participant_PG14.csv
PG14,50/50,2,51,471115,circle,square,0.5,0.5,1,square,164,positive,0.5,18.75,5,1003,FALSE,participant_PG14.csv
PG14,50/50,2,52,473262,square,circle,0.5,0.5,0,square,117,negative,-0.25,18.5,5,1001,FALSE,participant_PG14.csv
PG14,50/50,2,53,475335,circle,square,0.5,0.5,1,square,49,negative,-0.25,18.25,5,1005,FALSE,participant_PG14.csv
PG14,50/50,2,54,477553,circle,square,0.5,0.5,1,square,183,negative,-0.25,18,5,1009,FALSE,participant_PG14.csv
PG14,50/50,2,55,479656,square,circle,0.5,0.5,0,square,65,negative,-0.25,17.75,5,1014,FALSE,participant_PG14.csv
PG14,50/50,2,56,481970,square,circle,0.5,0.5,0,square,282,negative,-0.25,17.5,5,1008,FALSE,participant_PG14.csv
PG14,50/50,2,57,484176,square,circle,0.5,0.5,0,square,165,negative,-0.25,17.25,5,1014,FALSE,participant_PG14.csv
PG14,50/50,2,58,486212,square,circle,0.5,0.5,,,,,0,17.25,5,0,FALSE,participant_PG14.csv
PG14,50/50,2,58,487226,square,circle,0.5,0.5,,,,,0,17.25,5,1014,FALSE,participant_PG14.csv
PG14,50/50,2,59,489390,circle,square,0.5,0.5,1,square,118,positive,0.5,17.75,5,1013,FALSE,participant_PG14.csv
PG14,50/50,2,60,491488,square,circle,0.5,0.5,0,square,68,positive,0.5,18.25,5,1011,FALSE,participant_PG14.csv
PG15,Practice,0,1,72931,circle,square,0.2,0.8,,,,,0,0,5,0,TRUE,participant_PG15.csv
PG15,Practice,0,1,73933,circle,square,0.2,0.8,,,,,0,0,5,1002,TRUE,participant_PG15.csv
PG15,Practice,0,2,76056,square,circle,0.8,0.2,,,,,0,0,5,0,TRUE,participant_PG15.csv
PG15,Practice,0,2,77072,square,circle,0.8,0.2,,,,,0,0,5,1015,TRUE,participant_PG15.csv
PG15,Practice,0,3,79412,circle,square,0.2,0.8,1,square,219,positive,0,0,5,1012,TRUE,participant_PG15.csv
PG15,Practice,0,4,82237,circle,square,0.2,0.8,1,square,711,positive,0,0,5,1008,TRUE,participant_PG15.csv
PG15,Practice,0,5,84358,square,circle,0.8,0.2,,,,,0,0,5,0,TRUE,participant_PG15.csv
PG15,Practice,0,5,85371,square,circle,0.8,0.2,,,,,0,0,5,1013,TRUE,participant_PG15.csv
PG15,Practice,0,6,88149,circle,square,0.2,0.8,1,square,660,positive,0,0,5,1004,TRUE,participant_PG15.csv
PG15,Practice,0,7,90861,circle,square,0.2,0.8,1,square,590,positive,0,0,5,1009,TRUE,participant_PG15.csv
PG15,Practice,0,8,93753,square,circle,0.8,0.2,0,square,778,positive,0,0,5,1012,TRUE,participant_PG15.csv
PG15,Practice,0,9,96270,circle,square,0.2,0.8,1,square,398,negative,0,0,5,1009,TRUE,participant_PG15.csv
PG15,Practice,0,10,99206,circle,square,0.2,0.8,0,circle,810,negative,0,0,5,1012,TRUE,participant_PG15.csv
PG15,Practice,0,11,101562,square,circle,0.8,0.2,0,square,245,positive,0,0,5,1007,TRUE,participant_PG15.csv
PG15,Practice,0,12,104206,square,circle,0.8,0.2,0,square,528,positive,0,0,5,1008,TRUE,participant_PG15.csv
PG15,Practice,0,13,106724,square,circle,0.8,0.2,0,square,393,negative,0,0,5,1013,TRUE,participant_PG15.csv
PG15,Practice,0,14,108957,circle,square,0.2,0.8,1,square,115,positive,0,0,5,1009,TRUE,participant_PG15.csv
PG15,Practice,0,15,111610,square,circle,0.8,0.2,0,square,529,negative,0,0,5,1016,TRUE,participant_PG15.csv
PG15,Practice,0,16,114252,square,circle,0.8,0.2,0,square,528,positive,0,0,5,1010,TRUE,participant_PG15.csv
PG15,Practice,0,17,116960,square,circle,0.8,0.2,0,square,597,negative,0,0,5,1009,TRUE,participant_PG15.csv
PG15,Practice,0,18,119462,circle,square,0.2,0.8,1,square,384,negative,0,0,5,1007,TRUE,participant_PG15.csv
PG15,Practice,0,19,122045,square,circle,0.8,0.2,1,circle,461,negative,0,0,5,1012,TRUE,participant_PG15.csv
PG15,Practice,0,20,124682,circle,square,0.2,0.8,0,circle,513,negative,0,0,5,1009,TRUE,participant_PG15.csv
PG15,80/20,1,1,133803,square,circle,0.8,0.2,0,square,958,positive,0.5,0.5,5,1009,FALSE,participant_PG15.csv
PG15,80/20,1,2,136697,circle,square,0.2,0.8,1,square,776,positive,0.5,1,5,1004,FALSE,participant_PG15.csv
PG15,80/20,1,3,139312,circle,square,0.2,0.8,0,circle,492,negative,-0.25,0.75,5,1014,FALSE,participant_PG15.csv
PG15,80/20,1,4,141923,circle,square,0.2,0.8,1,square,491,positive,0.5,1.25,5,1004,FALSE,participant_PG15.csv
PG15,80/20,1,5,144553,circle,square,0.2,0.8,1,square,514,positive,0.5,1.75,5,1007,FALSE,participant_PG15.csv
PG15,80/20,1,6,147175,circle,square,0.2,0.8,1,square,495,negative,-0.25,1.5,5,1010,FALSE,participant_PG15.csv
PG15,80/20,1,7,149801,circle,square,0.2,0.8,1,square,515,negative,-0.25,1.25,5,1013,FALSE,participant_PG15.csv
PG15,80/20,1,8,152226,circle,square,0.2,0.8,1,square,311,positive,0.5,1.75,5,1001,FALSE,participant_PG15.csv
PG15,80/20,1,9,154726,circle,square,0.2,0.8,1,square,383,positive,0.5,2.25,5,1011,FALSE,participant_PG15.csv
PG15,80/20,1,10,157306,circle,square,0.2,0.8,0,circle,466,negative,-0.25,2,5,1003,FALSE,participant_PG15.csv
PG15,80/20,1,11,160144,square,circle,0.8,0.2,0,square,716,negative,-0.25,1.75,5,1011,FALSE,participant_PG15.csv
PG15,80/20,1,12,162601,square,circle,0.8,0.2,0,square,330,positive,0.5,2.25,5,1015,FALSE,participant_PG15.csv
PG15,80/20,1,13,165179,circle,square,0.2,0.8,1,square,468,positive,0.5,2.75,5,1010,FALSE,participant_PG15.csv
PG15,80/20,1,14,167761,square,circle,0.8,0.2,0,square,465,positive,0.5,3.25,5,1008,FALSE,participant_PG15.csv
PG15,80/20,1,15,170274,circle,square,0.2,0.8,0,circle,397,negative,-0.25,3,5,1007,FALSE,participant_PG15.csv
PG15,80/20,1,16,172693,circle,square,0.2,0.8,1,square,298,positive,0.5,3.5,5,1006,FALSE,participant_PG15.csv
PG15,80/20,1,17,175091,square,circle,0.8,0.2,0,square,280,positive,0.5,4,5,1010,FALSE,participant_PG15.csv
PG15,80/20,1,18,177792,square,circle,0.8,0.2,0,square,579,positive,0.5,4.5,5,1008,FALSE,participant_PG15.csv
PG15,80/20,1,19,180380,square,circle,0.8,0.2,0,square,463,positive,0.5,5,5,1011,FALSE,participant_PG15.csv
PG15,80/20,1,20,182844,square,circle,0.8,0.2,0,square,346,negative,-0.25,4.75,5,1007,FALSE,participant_PG15.csv
PG15,80/20,1,21,185147,square,circle,0.8,0.2,0,square,182,positive,0.5,5.25,5,1011,FALSE,participant_PG15.csv
PG15,80/20,1,22,187633,square,circle,0.8,0.2,0,square,364,positive,0.5,5.75,5,1011,FALSE,participant_PG15.csv
PG15,80/20,1,23,190056,circle,square,0.2,0.8,1,square,300,positive,0.5,6.25,5,1011,FALSE,participant_PG15.csv
PG15,80/20,1,24,192478,square,circle,0.8,0.2,0,square,298,positive,0.5,6.75,5,1009,FALSE,participant_PG15.csv
PG15,80/20,1,25,194821,square,circle,0.8,0.2,0,square,229,positive,0.5,7.25,5,1007,FALSE,participant_PG15.csv
PG15,80/20,1,26,197333,circle,square,0.2,0.8,1,square,381,positive,0.5,7.75,5,1014,FALSE,participant_PG15.csv
PG15,80/20,1,27,199799,circle,square,0.2,0.8,1,square,349,positive,0.5,8.25,5,1009,FALSE,participant_PG15.csv
PG15,80/20,1,28,202150,circle,square,0.2,0.8,1,square,231,positive,0.5,8.75,5,1007,FALSE,participant_PG15.csv
PG15,80/20,1,29,204637,circle,square,0.2,0.8,1,square,360,positive,0.5,9.25,5,1012,FALSE,participant_PG15.csv
PG15,80/20,1,30,207424,circle,square,0.2,0.8,1,square,664,positive,0.5,9.75,5,1013,FALSE,participant_PG15.csv
PG15,80/20,1,31,209886,square,circle,0.8,0.2,0,square,345,positive,0.5,10.25,5,1011,FALSE,participant_PG15.csv
PG15,80/20,1,32,212287,square,circle,0.8,0.2,0,square,281,positive,0.5,10.75,5,1009,FALSE,participant_PG15.csv
PG15,80/20,1,33,214772,circle,square,0.2,0.8,1,square,357,positive,0.5,11.25,5,1012,FALSE,participant_PG15.csv
PG15,80/20,1,34,217662,circle,square,0.2,0.8,1,square,777,positive,0.5,11.75,5,1003,FALSE,participant_PG15.csv
PG15,80/20,1,35,220174,square,circle,0.8,0.2,0,square,397,positive,0.5,12.25,5,1007,FALSE,participant_PG15.csv
PG15,80/20,1,36,222944,circle,square,0.2,0.8,1,square,659,positive,0.5,12.75,5,1008,FALSE,participant_PG15.csv
PG15,80/20,1,37,225394,circle,square,0.2,0.8,1,square,331,positive,0.5,13.25,5,1011,FALSE,participant_PG15.csv
PG15,80/20,1,38,227845,square,circle,0.8,0.2,0,square,330,positive,0.5,13.75,5,1009,FALSE,participant_PG15.csv
PG15,80/20,1,39,230279,circle,square,0.2,0.8,1,square,314,positive,0.5,14.25,5,1008,FALSE,participant_PG15.csv
PG15,80/20,1,40,232629,square,circle,0.8,0.2,0,square,230,positive,0.5,14.75,5,1008,FALSE,participant_PG15.csv
PG15,80/20,1,41,235053,circle,square,0.2,0.8,1,square,315,positive,0.5,15.25,5,1011,FALSE,participant_PG15.csv
PG15,80/20,1,42,237598,circle,square,0.2,0.8,1,square,426,negative,-0.25,15,5,1015,FALSE,participant_PG15.csv
PG15,80/20,1,43,240251,square,circle,0.8,0.2,0,square,530,negative,-0.25,14.75,5,1009,FALSE,participant_PG15.csv
PG15,80/20,1,44,242844,square,circle,0.8,0.2,0,square,472,positive,0.5,15.25,5,1011,FALSE,participant_PG15.csv
PG15,80/20,1,45,245277,square,circle,0.8,0.2,0,square,316,positive,0.5,15.75,5,1006,FALSE,participant_PG15.csv
PG15,80/20,1,46,247844,square,circle,0.8,0.2,0,square,448,positive,0.5,16.25,5,1007,FALSE,participant_PG15.csv
PG15,80/20,1,47,250289,circle,square,0.2,0.8,1,square,330,positive,0.5,16.75,5,1001,FALSE,participant_PG15.csv
PG15,80/20,1,48,252842,square,circle,0.8,0.2,0,square,428,positive,0.5,17.25,5,1014,FALSE,participant_PG15.csv
PG15,80/20,1,49,255637,square,circle,0.8,0.2,0,square,681,negative,-0.25,17,5,1002,FALSE,participant_PG15.csv
PG15,80/20,1,50,258091,square,circle,0.8,0.2,0,square,344,positive,0.5,17.5,5,1008,FALSE,participant_PG15.csv
PG15,80/20,1,51,260491,square,circle,0.8,0.2,0,square,284,positive,0.5,18,5,1010,FALSE,participant_PG15.csv
PG15,80/20,1,52,263168,square,circle,0.8,0.2,0,square,559,positive,0.5,18.5,5,1009,FALSE,participant_PG15.csv
PG15,80/20,1,53,265634,circle,square,0.2,0.8,1,square,347,positive,0.5,19,5,1009,FALSE,participant_PG15.csv
PG15,80/20,1,54,267806,circle,square,0.2,0.8,1,square,49,positive,0.5,19.5,5,1009,FALSE,participant_PG15.csv
PG15,80/20,1,55,270525,circle,square,0.2,0.8,1,square,597,positive,0.5,20,5,1009,FALSE,participant_PG15.csv
PG15,80/20,1,56,272924,square,circle,0.8,0.2,0,square,281,negative,-0.25,19.75,5,1010,FALSE,participant_PG15.csv
PG15,80/20,1,57,275445,circle,square,0.2,0.8,1,square,397,positive,0.5,20.25,5,1008,FALSE,participant_PG15.csv
PG15,80/20,1,58,277919,circle,square,0.2,0.8,1,square,349,positive,0.5,20.75,5,1012,FALSE,participant_PG15.csv
PG15,80/20,1,59,280543,square,circle,0.8,0.2,0,square,508,positive,0.5,21.25,5,1008,FALSE,participant_PG15.csv
PG15,80/20,1,60,283120,square,circle,0.8,0.2,0,square,461,positive,0.5,21.75,5,1010,FALSE,participant_PG15.csv
PG15,50/50,2,1,295615,square,circle,0.5,0.5,,,,,0,21.75,5,0,FALSE,participant_PG15.csv
PG15,50/50,2,1,296629,square,circle,0.5,0.5,,,,,0,21.75,5,1014,FALSE,participant_PG15.csv
PG15,50/50,2,2,299249,square,circle,0.5,0.5,0,square,497,negative,-0.25,21.5,5,1016,FALSE,participant_PG15.csv
PG15,50/50,2,3,301846,square,circle,0.5,0.5,0,square,485,negative,-0.25,21.25,5,1000,FALSE,participant_PG15.csv
PG15,50/50,2,4,304423,circle,square,0.5,0.5,1,square,464,negative,-0.25,21,5,1010,FALSE,participant_PG15.csv
PG15,50/50,2,5,307117,circle,square,0.5,0.5,0,circle,578,positive,0.5,21.5,5,1007,FALSE,participant_PG15.csv
PG15,50/50,2,6,309733,circle,square,0.5,0.5,0,circle,494,negative,-0.25,21.25,5,1015,FALSE,participant_PG15.csv
PG15,50/50,2,7,312196,square,circle,0.5,0.5,1,circle,346,negative,-0.25,21,5,1007,FALSE,participant_PG15.csv
PG15,50/50,2,8,314728,square,circle,0.5,0.5,0,square,413,positive,0.5,21.5,5,1009,FALSE,participant_PG15.csv
PG15,50/50,2,9,317377,square,circle,0.5,0.5,0,square,546,positive,0.5,22,5,1006,FALSE,participant_PG15.csv
PG15,50/50,2,10,319807,circle,square,0.5,0.5,1,square,312,positive,0.5,22.5,5,1008,FALSE,participant_PG15.csv
PG15,50/50,2,11,322399,square,circle,0.5,0.5,0,square,464,negative,-0.25,22.25,5,1013,FALSE,participant_PG15.csv
PG15,50/50,2,12,324896,square,circle,0.5,0.5,0,square,379,positive,0.5,22.75,5,1010,FALSE,participant_PG15.csv
PG15,50/50,2,13,327409,circle,square,0.5,0.5,1,square,396,negative,-0.25,22.5,5,1009,FALSE,participant_PG15.csv
PG15,50/50,2,14,330020,circle,square,0.5,0.5,1,square,494,negative,-0.25,22.25,5,1016,FALSE,participant_PG15.csv
PG15,50/50,2,15,332487,square,circle,0.5,0.5,0,square,347,positive,0.5,22.75,5,1007,FALSE,participant_PG15.csv
PG15,50/50,2,16,334931,circle,square,0.5,0.5,0,circle,331,positive,0.5,23.25,5,1004,FALSE,participant_PG15.csv
PG15,50/50,2,17,337429,circle,square,0.5,0.5,0,circle,379,positive,0.5,23.75,5,1012,FALSE,participant_PG15.csv
PG15,50/50,2,18,339876,square,circle,0.5,0.5,0,square,336,positive,0.5,24.25,5,1008,FALSE,participant_PG15.csv
PG15,50/50,2,19,342295,square,circle,0.5,0.5,1,circle,299,positive,0.5,24.75,5,1012,FALSE,participant_PG15.csv
PG15,50/50,2,20,344823,square,circle,0.5,0.5,1,circle,411,negative,-0.25,24.5,5,1010,FALSE,participant_PG15.csv
PG15,50/50,2,21,347212,circle,square,0.5,0.5,1,square,262,negative,-0.25,24.25,5,1012,FALSE,participant_PG15.csv
PG15,50/50,2,22,349775,circle,square,0.5,0.5,1,square,447,negative,-0.25,24,5,1008,FALSE,participant_PG15.csv
PG15,50/50,2,23,352096,square,circle,0.5,0.5,0,square,198,positive,0.5,24.5,5,1008,FALSE,participant_PG15.csv
PG15,50/50,2,24,354629,square,circle,0.5,0.5,1,circle,414,positive,0.5,25,5,1010,FALSE,participant_PG15.csv
PG15,50/50,2,25,357352,circle,square,0.5,0.5,0,circle,611,negative,-0.25,24.75,5,1009,FALSE,participant_PG15.csv
PG15,50/50,2,26,359884,circle,square,0.5,0.5,1,square,411,negative,-0.25,24.5,5,1008,FALSE,participant_PG15.csv
PG15,50/50,2,27,362382,circle,square,0.5,0.5,1,square,383,negative,-0.25,24.25,5,1006,FALSE,participant_PG15.csv
PG15,50/50,2,28,365181,circle,square,0.5,0.5,1,square,676,negative,-0.25,24,5,1011,FALSE,participant_PG15.csv
PG15,50/50,2,29,367675,square,circle,0.5,0.5,0,square,379,positive,0.5,24.5,5,1007,FALSE,participant_PG15.csv
PG15,50/50,2,30,370122,circle,square,0.5,0.5,1,square,330,negative,-0.25,24.25,5,1007,FALSE,participant_PG15.csv
PG15,50/50,2,31,372564,circle,square,0.5,0.5,1,square,316,positive,0.5,24.75,5,1015,FALSE,participant_PG15.csv
PG15,50/50,2,32,375070,square,circle,0.5,0.5,1,circle,384,negative,-0.25,24.5,5,1011,FALSE,participant_PG15.csv
PG15,50/50,2,33,377501,circle,square,0.5,0.5,1,square,313,positive,0.5,25,5,1009,FALSE,participant_PG15.csv
PG15,50/50,2,34,380001,circle,square,0.5,0.5,0,circle,379,positive,0.5,25.5,5,1012,FALSE,participant_PG15.csv
PG15,50/50,2,35,382443,square,circle,0.5,0.5,1,circle,317,negative,-0.25,25.25,5,1009,FALSE,participant_PG15.csv
PG15,50/50,2,36,384838,circle,square,0.5,0.5,1,square,278,negative,-0.25,25,5,1010,FALSE,participant_PG15.csv
PG15,50/50,2,37,387258,circle,square,0.5,0.5,1,square,315,positive,0.5,25.5,5,1008,FALSE,participant_PG15.csv
PG15,50/50,2,38,389681,square,circle,0.5,0.5,1,circle,299,negative,-0.25,25.25,5,1007,FALSE,participant_PG15.csv
PG15,50/50,2,39,392049,circle,square,0.5,0.5,1,square,248,negative,-0.25,25,5,1008,FALSE,participant_PG15.csv
PG15,50/50,2,40,394579,circle,square,0.5,0.5,0,circle,415,negative,-0.25,24.75,5,1010,FALSE,participant_PG15.csv
PG15,50/50,2,41,397050,square,circle,0.5,0.5,0,square,346,positive,0.5,25.25,5,1013,FALSE,participant_PG15.csv
PG15,50/50,2,42,399508,square,circle,0.5,0.5,1,circle,345,positive,0.5,25.75,5,1009,FALSE,participant_PG15.csv
PG15,50/50,2,43,401915,circle,square,0.5,0.5,1,square,297,negative,-0.25,25.5,5,1002,FALSE,participant_PG15.csv
PG15,50/50,2,44,404234,circle,square,0.5,0.5,0,circle,215,positive,0.5,26,5,1006,FALSE,participant_PG15.csv
PG15,50/50,2,45,406876,square,circle,0.5,0.5,1,circle,523,positive,0.5,26.5,5,1011,FALSE,participant_PG15.csv
PG15,50/50,2,46,409357,square,circle,0.5,0.5,0,square,362,positive,0.5,27,5,1005,FALSE,participant_PG15.csv
PG15,50/50,2,47,411860,square,circle,0.5,0.5,1,circle,383,positive,0.5,27.5,5,1007,FALSE,participant_PG15.csv
PG15,50/50,2,48,414252,circle,square,0.5,0.5,0,circle,268,positive,0.5,28,5,1012,FALSE,participant_PG15.csv
PG15,50/50,2,49,416719,square,circle,0.5,0.5,0,square,348,negative,-0.25,27.75,5,1012,FALSE,participant_PG15.csv
PG15,50/50,2,50,419086,square,circle,0.5,0.5,1,circle,247,negative,-0.25,27.5,5,1009,FALSE,participant_PG15.csv
PG15,50/50,2,51,421485,circle,square,0.5,0.5,1,square,280,positive,0.5,28,5,1009,FALSE,participant_PG15.csv
PG15,50/50,2,52,423958,circle,square,0.5,0.5,1,square,364,negative,-0.25,27.75,5,1007,FALSE,participant_PG15.csv
PG15,50/50,2,53,426385,square,circle,0.5,0.5,1,circle,315,positive,0.5,28.25,5,1008,FALSE,participant_PG15.csv
PG15,50/50,2,54,428670,square,circle,0.5,0.5,0,square,165,negative,-0.25,28,5,1008,FALSE,participant_PG15.csv
PG15,50/50,2,55,431078,circle,square,0.5,0.5,0,circle,296,negative,-0.25,27.75,5,1009,FALSE,participant_PG15.csv
PG15,50/50,2,56,433477,circle,square,0.5,0.5,1,square,280,negative,-0.25,27.5,5,1014,FALSE,participant_PG15.csv
PG15,50/50,2,57,435911,square,circle,0.5,0.5,1,circle,312,positive,0.5,28,5,1011,FALSE,participant_PG15.csv
PG15,50/50,2,58,438631,circle,square,0.5,0.5,1,square,596,positive,0.5,28.5,5,1015,FALSE,participant_PG15.csv
PG15,50/50,2,59,440998,circle,square,0.5,0.5,0,circle,249,positive,0.5,29,5,1009,FALSE,participant_PG15.csv
PG15,50/50,2,60,443546,circle,square,0.5,0.5,1,square,429,negative,-0.25,28.75,5,1007,FALSE,participant_PG15.csv
PG16,Practice,0,1,18941,square,circle,0.8,0.2,,,,,0,0,5,0,TRUE,participant_PG16.csv
PG16,Practice,0,1,19958,square,circle,0.8,0.2,,,,,0,0,5,1016,TRUE,participant_PG16.csv
PG16,Practice,0,2,22038,square,circle,0.8,0.2,,,,,0,0,5,0,TRUE,participant_PG16.csv
PG16,Practice,0,2,23053,square,circle,0.8,0.2,,,,,0,0,5,1015,TRUE,participant_PG16.csv
PG16,Practice,0,3,25137,square,circle,0.8,0.2,,,,,0,0,5,0,TRUE,participant_PG16.csv
PG16,Practice,0,3,26140,square,circle,0.8,0.2,,,,,0,0,5,1002,TRUE,participant_PG16.csv
PG16,Practice,0,4,28734,square,circle,0.8,0.2,0,square,529,positive,0,0,5,1001,TRUE,participant_PG16.csv
PG16,Practice,0,5,31126,square,circle,0.8,0.2,1,circle,307,negative,0,0,5,1008,TRUE,participant_PG16.csv
PG16,Practice,0,6,33602,circle,square,0.2,0.8,0,circle,392,positive,0,0,5,1005,TRUE,participant_PG16.csv
PG16,Practice,0,7,35993,square,circle,0.8,0.2,0,square,295,positive,0,0,5,1014,TRUE,participant_PG16.csv
PG16,Practice,0,8,38373,circle,square,0.2,0.8,0,circle,313,negative,0,0,5,1000,TRUE,participant_PG16.csv
PG16,Practice,0,9,40770,circle,square,0.2,0.8,0,circle,311,negative,0,0,5,1015,TRUE,participant_PG16.csv
PG16,Practice,0,10,42856,circle,square,0.2,0.8,,,,,0,0,5,0,TRUE,participant_PG16.csv
PG16,Practice,0,10,43858,circle,square,0.2,0.8,,,,,0,0,5,1001,TRUE,participant_PG16.csv
PG16,Practice,0,11,46250,square,circle,0.8,0.2,0,square,311,positive,0,0,5,1007,TRUE,participant_PG16.csv
PG16,Practice,0,12,49107,circle,square,0.2,0.8,1,square,785,positive,0,0,5,1001,TRUE,participant_PG16.csv
PG16,Practice,0,13,51460,square,circle,0.8,0.2,0,square,276,positive,0,0,5,1003,TRUE,participant_PG16.csv
PG16,Practice,0,14,53844,square,circle,0.8,0.2,1,circle,311,negative,0,0,5,1007,TRUE,participant_PG16.csv
PG16,Practice,0,15,56307,circle,square,0.2,0.8,0,circle,376,negative,0,0,5,1007,TRUE,participant_PG16.csv
PG16,Practice,0,16,58815,square,circle,0.8,0.2,1,circle,431,negative,0,0,5,1004,TRUE,participant_PG16.csv
PG16,Practice,0,17,61262,square,circle,0.8,0.2,0,square,367,positive,0,0,5,1009,TRUE,participant_PG16.csv
PG16,Practice,0,18,63993,square,circle,0.8,0.2,0,square,654,positive,0,0,5,1005,TRUE,participant_PG16.csv
PG16,Practice,0,19,66446,circle,square,0.2,0.8,0,circle,363,positive,0,0,5,1000,TRUE,participant_PG16.csv
PG16,Practice,0,20,68810,square,circle,0.8,0.2,0,square,275,positive,0,0,5,1010,TRUE,participant_PG16.csv
PG16,80/20,1,1,78438,circle,square,0.2,0.8,,,,,0,0,5,0,FALSE,participant_PG16.csv
PG16,80/20,1,1,79438,circle,square,0.2,0.8,,,,,0,0,5,1000,FALSE,participant_PG16.csv
PG16,80/20,1,2,81807,circle,square,0.2,0.8,0,circle,283,negative,-0.25,-0.25,5,1005,FALSE,participant_PG16.csv
PG16,80/20,1,3,84332,square,circle,0.8,0.2,0,square,432,positive,0.5,0.25,5,1013,FALSE,participant_PG16.csv
PG16,80/20,1,4,86663,square,circle,0.8,0.2,1,circle,244,negative,-0.25,0,5,1013,FALSE,participant_PG16.csv
PG16,80/20,1,5,89000,square,circle,0.8,0.2,0,square,264,positive,0.5,0.5,5,1004,FALSE,participant_PG16.csv
PG16,80/20,1,6,91413,square,circle,0.8,0.2,0,square,309,positive,0.5,1,5,1011,FALSE,participant_PG16.csv
PG16,80/20,1,7,93732,square,circle,0.8,0.2,0,square,229,positive,0.5,1.5,5,1008,FALSE,participant_PG16.csv
PG16,80/20,1,8,96079,circle,square,0.2,0.8,0,circle,261,negative,-0.25,1.25,5,1006,FALSE,participant_PG16.csv
PG16,80/20,1,9,98436,circle,square,0.2,0.8,1,square,280,positive,0.5,1.75,5,1004,FALSE,participant_PG16.csv
PG16,80/20,1,10,100837,square,circle,0.8,0.2,1,circle,316,negative,-0.25,1.5,5,1016,FALSE,participant_PG16.csv
PG16,80/20,1,11,103044,square,circle,0.8,0.2,0,square,131,positive,0.5,2,5,1010,FALSE,participant_PG16.csv
PG16,80/20,1,12,105350,circle,square,0.2,0.8,0,circle,213,negative,-0.25,1.75,5,1003,FALSE,participant_PG16.csv
PG16,80/20,1,13,108128,circle,square,0.2,0.8,1,square,704,positive,0.5,2.25,5,1007,FALSE,participant_PG16.csv
PG16,80/20,1,14,110509,square,circle,0.8,0.2,1,circle,297,negative,-0.25,2,5,1006,FALSE,participant_PG16.csv
PG16,80/20,1,15,112832,circle,square,0.2,0.8,0,circle,246,negative,-0.25,1.75,5,1006,FALSE,participant_PG16.csv
PG16,80/20,1,16,115037,square,circle,0.8,0.2,0,square,132,positive,0.5,2.25,5,1003,FALSE,participant_PG16.csv
PG16,80/20,1,17,117376,circle,square,0.2,0.8,1,square,229,positive,0.5,2.75,5,1015,FALSE,participant_PG16.csv
PG16,80/20,1,18,119742,square,circle,0.8,0.2,0,square,273,positive,0.5,3.25,5,1004,FALSE,participant_PG16.csv
PG16,80/20,1,19,122087,circle,square,0.2,0.8,0,circle,262,negative,-0.25,3,5,1001,FALSE,participant_PG16.csv
PG16,80/20,1,20,124484,square,circle,0.8,0.2,1,circle,328,negative,-0.25,2.75,5,1001,FALSE,participant_PG16.csv
PG16,80/20,1,21,126833,circle,square,0.2,0.8,0,circle,280,negative,-0.25,2.5,5,1001,FALSE,participant_PG16.csv
PG16,80/20,1,22,129161,circle,square,0.2,0.8,0,circle,246,negative,-0.25,2.25,5,1016,FALSE,participant_PG16.csv
PG16,80/20,1,23,131586,circle,square,0.2,0.8,0,circle,349,negative,-0.25,2,5,1004,FALSE,participant_PG16.csv
PG16,80/20,1,24,133946,circle,square,0.2,0.8,0,circle,278,negative,-0.25,1.75,5,1003,FALSE,participant_PG16.csv
PG16,80/20,1,25,136316,square,circle,0.8,0.2,0,square,278,positive,0.5,2.25,5,1014,FALSE,participant_PG16.csv
PG16,80/20,1,26,138689,square,circle,0.8,0.2,0,square,291,positive,0.5,2.75,5,1014,FALSE,participant_PG16.csv
PG16,80/20,1,27,141153,square,circle,0.8,0.2,0,square,391,positive,0.5,3.25,5,1003,FALSE,participant_PG16.csv
PG16,80/20,1,28,143535,square,circle,0.8,0.2,0,square,299,positive,0.5,3.75,5,1010,FALSE,participant_PG16.csv
PG16,80/20,1,29,146081,square,circle,0.8,0.2,0,square,480,positive,0.5,4.25,5,1001,FALSE,participant_PG16.csv
PG16,80/20,1,30,148434,circle,square,0.2,0.8,0,circle,279,negative,-0.25,4,5,1006,FALSE,participant_PG16.csv
PG16,80/20,1,31,150742,square,circle,0.8,0.2,1,circle,231,negative,-0.25,3.75,5,1011,FALSE,participant_PG16.csv
PG16,80/20,1,32,153042,circle,square,0.2,0.8,1,square,215,negative,-0.25,3.5,5,1002,FALSE,participant_PG16.csv
PG16,80/20,1,33,155422,circle,square,0.2,0.8,0,circle,297,negative,-0.25,3.25,5,1014,FALSE,participant_PG16.csv
PG16,80/20,1,34,157621,square,circle,0.8,0.2,1,circle,101,negative,-0.25,3,5,1016,FALSE,participant_PG16.csv
PG16,80/20,1,35,160006,square,circle,0.8,0.2,0,square,294,negative,-0.25,2.75,5,1016,FALSE,participant_PG16.csv
PG16,80/20,1,36,162360,square,circle,0.8,0.2,0,square,278,positive,0.5,3.25,5,1007,FALSE,participant_PG16.csv
PG16,80/20,1,37,164749,square,circle,0.8,0.2,0,square,294,positive,0.5,3.75,5,1013,FALSE,participant_PG16.csv
PG16,80/20,1,38,167065,square,circle,0.8,0.2,0,square,248,positive,0.5,4.25,5,1000,FALSE,participant_PG16.csv
PG16,80/20,1,39,169485,square,circle,0.8,0.2,0,square,331,positive,0.5,4.75,5,1008,FALSE,participant_PG16.csv
PG16,80/20,1,40,171843,square,circle,0.8,0.2,0,square,278,positive,0.5,5.25,5,1009,FALSE,participant_PG16.csv
PG16,80/20,1,41,174333,square,circle,0.8,0.2,0,square,407,positive,0.5,5.75,5,1003,FALSE,participant_PG16.csv
PG16,80/20,1,42,176535,square,circle,0.8,0.2,1,circle,132,negative,-0.25,5.5,5,1003,FALSE,participant_PG16.csv
PG16,80/20,1,43,178746,square,circle,0.8,0.2,0,square,114,positive,0.5,6,5,1015,FALSE,participant_PG16.csv
PG16,80/20,1,44,181043,circle,square,0.2,0.8,0,circle,227,negative,-0.25,5.75,5,1002,FALSE,participant_PG16.csv
PG16,80/20,1,45,183223,circle,square,0.2,0.8,0,circle,100,negative,-0.25,5.5,5,1005,FALSE,participant_PG16.csv
PG16,80/20,1,46,185326,square,circle,0.8,0.2,1,circle,34,positive,0.5,6,5,1003,FALSE,participant_PG16.csv
PG16,80/20,1,47,187628,square,circle,0.8,0.2,1,circle,229,negative,-0.25,5.75,5,1003,FALSE,participant_PG16.csv
PG16,80/20,1,48,190254,square,circle,0.8,0.2,0,square,540,negative,-0.25,5.5,5,1007,FALSE,participant_PG16.csv
PG16,80/20,1,49,192555,square,circle,0.8,0.2,1,circle,229,positive,0.5,6,5,1002,FALSE,participant_PG16.csv
PG16,80/20,1,50,194787,circle,square,0.2,0.8,1,square,147,positive,0.5,6.5,5,1000,FALSE,participant_PG16.csv
PG16,80/20,1,51,197162,square,circle,0.8,0.2,1,circle,297,negative,-0.25,6.25,5,1008,FALSE,participant_PG16.csv
PG16,80/20,1,52,199511,square,circle,0.8,0.2,0,square,244,positive,0.5,6.75,5,1015,FALSE,participant_PG16.csv
PG16,80/20,1,53,201715,circle,square,0.2,0.8,0,circle,116,negative,-0.25,6.5,5,1015,FALSE,participant_PG16.csv
PG16,80/20,1,54,203982,square,circle,0.8,0.2,1,circle,180,negative,-0.25,6.25,5,1012,FALSE,participant_PG16.csv
PG16,80/20,1,55,206251,circle,square,0.2,0.8,1,square,195,positive,0.5,6.75,5,1006,FALSE,participant_PG16.csv
PG16,80/20,1,56,208638,square,circle,0.8,0.2,1,circle,310,negative,-0.25,6.5,5,1001,FALSE,participant_PG16.csv
PG16,80/20,1,57,211065,circle,square,0.2,0.8,0,circle,341,negative,-0.25,6.25,5,1004,FALSE,participant_PG16.csv
PG16,80/20,1,58,213376,square,circle,0.8,0.2,1,circle,243,negative,-0.25,6,5,1004,FALSE,participant_PG16.csv
PG16,80/20,1,59,215703,circle,square,0.2,0.8,0,circle,244,negative,-0.25,5.75,5,1005,FALSE,participant_PG16.csv
PG16,80/20,1,60,218037,circle,square,0.2,0.8,0,circle,249,negative,-0.25,5.5,5,1015,FALSE,participant_PG16.csv
PG16,50/50,2,1,225128,circle,square,0.5,0.5,0,circle,939,negative,-0.25,5.25,5,1003,FALSE,participant_PG16.csv
PG16,50/50,2,2,227427,square,circle,0.5,0.5,0,square,232,positive,0.5,5.75,5,1003,FALSE,participant_PG16.csv
PG16,50/50,2,3,229525,square,circle,0.5,0.5,0,square,17,positive,0.5,6.25,5,1003,FALSE,participant_PG16.csv
PG16,50/50,2,4,231801,circle,square,0.5,0.5,1,square,199,positive,0.5,6.75,5,1010,FALSE,participant_PG16.csv
PG16,50/50,2,5,234046,circle,square,0.5,0.5,1,square,167,negative,-0.25,6.5,5,1005,FALSE,participant_PG16.csv
PG16,50/50,2,6,236636,circle,square,0.5,0.5,1,square,509,positive,0.5,7,5,1012,FALSE,participant_PG16.csv
PG16,50/50,2,7,239067,square,circle,0.5,0.5,0,square,345,negative,-0.25,6.75,5,1015,FALSE,participant_PG16.csv
PG16,50/50,2,8,241614,square,circle,0.5,0.5,0,square,476,positive,0.5,7.25,5,1003,FALSE,participant_PG16.csv
PG16,50/50,2,9,243740,square,circle,0.5,0.5,0,square,32,positive,0.5,7.75,5,1003,FALSE,participant_PG16.csv
PG16,50/50,2,10,246138,square,circle,0.5,0.5,0,square,311,positive,0.5,8.25,5,1008,FALSE,participant_PG16.csv
PG16,50/50,2,11,248260,circle,square,0.5,0.5,1,square,32,positive,0.5,8.75,5,1000,FALSE,participant_PG16.csv
PG16,50/50,2,12,250396,circle,square,0.5,0.5,1,square,49,negative,-0.25,8.5,5,1012,FALSE,participant_PG16.csv
PG16,50/50,2,13,252849,circle,square,0.5,0.5,1,square,359,positive,0.5,9,5,1014,FALSE,participant_PG16.csv
PG16,50/50,2,14,255216,circle,square,0.5,0.5,1,square,278,negative,-0.25,8.75,5,1006,FALSE,participant_PG16.csv
PG16,50/50,2,15,257692,circle,square,0.5,0.5,1,square,393,positive,0.5,9.25,5,1011,FALSE,participant_PG16.csv
PG16,50/50,2,16,260047,circle,square,0.5,0.5,1,square,265,positive,0.5,9.75,5,1015,FALSE,participant_PG16.csv
PG16,50/50,2,17,262232,square,circle,0.5,0.5,0,square,98,negative,-0.25,9.5,5,1005,FALSE,participant_PG16.csv
PG16,50/50,2,18,264491,circle,square,0.5,0.5,1,square,179,positive,0.5,10,5,1006,FALSE,participant_PG16.csv
PG16,50/50,2,19,266776,square,circle,0.5,0.5,0,square,199,positive,0.5,10.5,5,1012,FALSE,participant_PG16.csv
PG16,50/50,2,20,269032,circle,square,0.5,0.5,1,square,179,negative,-0.25,10.25,5,1009,FALSE,participant_PG16.csv
PG16,50/50,2,21,271287,circle,square,0.5,0.5,1,square,176,negative,-0.25,10,5,1007,FALSE,participant_PG16.csv
PG16,50/50,2,22,273848,square,circle,0.5,0.5,0,square,474,positive,0.5,10.5,5,1016,FALSE,participant_PG16.csv
PG16,50/50,2,23,276294,circle,square,0.5,0.5,1,square,344,positive,0.5,11,5,1014,FALSE,participant_PG16.csv
PG16,50/50,2,24,278651,square,circle,0.5,0.5,0,square,283,positive,0.5,11.5,5,1001,FALSE,participant_PG16.csv
PG16,50/50,2,25,281115,square,circle,0.5,0.5,0,square,376,negative,-0.25,11.25,5,1013,FALSE,participant_PG16.csv
PG16,50/50,2,26,283546,square,circle,0.5,0.5,0,square,345,positive,0.5,11.75,5,1015,FALSE,participant_PG16.csv
PG16,50/50,2,27,286060,circle,square,0.5,0.5,1,square,430,positive,0.5,12.25,5,1004,FALSE,participant_PG16.csv
PG16,50/50,2,28,288458,circle,square,0.5,0.5,1,square,309,positive,0.5,12.75,5,1006,FALSE,participant_PG16.csv
PG16,50/50,2,29,291034,square,circle,0.5,0.5,0,square,478,negative,-0.25,12.5,5,1015,FALSE,participant_PG16.csv
PG16,50/50,2,30,293427,circle,square,0.5,0.5,1,square,313,negative,-0.25,12.25,5,1013,FALSE,participant_PG16.csv
PG16,50/50,2,31,295866,circle,square,0.5,0.5,1,square,360,negative,-0.25,12,5,1000,FALSE,participant_PG16.csv
PG16,50/50,2,32,298412,circle,square,0.5,0.5,1,square,464,positive,0.5,12.5,5,1002,FALSE,participant_PG16.csv
PG16,50/50,2,33,300772,circle,square,0.5,0.5,1,square,278,negative,-0.25,12.25,5,1015,FALSE,participant_PG16.csv
PG16,50/50,2,34,303331,square,circle,0.5,0.5,0,square,475,negative,-0.25,12,5,1002,FALSE,participant_PG16.csv
PG16,50/50,2,35,305663,circle,square,0.5,0.5,1,square,251,positive,0.5,12.5,5,1006,FALSE,participant_PG16.csv
PG16,50/50,2,36,308115,square,circle,0.5,0.5,0,square,373,negative,-0.25,12.25,5,1004,FALSE,participant_PG16.csv
PG16,50/50,2,37,310505,square,circle,0.5,0.5,0,square,310,negative,-0.25,12,5,1004,FALSE,participant_PG16.csv
PG16,50/50,2,38,312808,square,circle,0.5,0.5,0,square,231,negative,-0.25,11.75,5,1000,FALSE,participant_PG16.csv
PG16,50/50,2,39,315139,circle,square,0.5,0.5,1,square,261,negative,-0.25,11.5,5,1000,FALSE,participant_PG16.csv
PG16,50/50,2,40,317410,square,circle,0.5,0.5,0,square,178,positive,0.5,12,5,1017,FALSE,participant_PG16.csv
PG16,50/50,2,41,319709,square,circle,0.5,0.5,0,square,228,positive,0.5,12.5,5,1007,FALSE,participant_PG16.csv
PG16,50/50,2,42,322085,circle,square,0.5,0.5,1,square,296,negative,-0.25,12.25,5,1000,FALSE,participant_PG16.csv
PG16,50/50,2,43,324424,circle,square,0.5,0.5,1,square,260,negative,-0.25,12,5,1009,FALSE,participant_PG16.csv
PG16,50/50,2,44,326783,circle,square,0.5,0.5,1,square,275,negative,-0.25,11.75,5,1003,FALSE,participant_PG16.csv
PG16,50/50,2,45,328942,circle,square,0.5,0.5,1,square,66,negative,-0.25,11.5,5,1002,FALSE,participant_PG16.csv
PG16,50/50,2,46,331250,circle,square,0.5,0.5,1,square,233,positive,0.5,12,5,1008,FALSE,participant_PG16.csv
PG16,50/50,2,47,333643,circle,square,0.5,0.5,1,square,309,negative,-0.25,11.75,5,1002,FALSE,participant_PG16.csv
PG16,50/50,2,48,336022,circle,square,0.5,0.5,1,square,296,positive,0.5,12.25,5,1013,FALSE,participant_PG16.csv
PG16,50/50,2,49,338465,square,circle,0.5,0.5,0,square,360,positive,0.5,12.75,5,1015,FALSE,participant_PG16.csv
PG16,50/50,2,50,340756,square,circle,0.5,0.5,0,square,215,positive,0.5,13.25,5,1005,FALSE,participant_PG16.csv
PG16,50/50,2,51,343310,circle,square,0.5,0.5,1,square,458,negative,-0.25,13,5,1015,FALSE,participant_PG16.csv
PG16,50/50,2,52,345460,circle,square,0.5,0.5,1,square,65,positive,0.5,13.5,5,1004,FALSE,participant_PG16.csv
PG16,50/50,2,53,347843,circle,square,0.5,0.5,1,square,314,positive,0.5,14,5,1000,FALSE,participant_PG16.csv
PG16,50/50,2,54,350241,circle,square,0.5,0.5,1,square,315,positive,0.5,14.5,5,1000,FALSE,participant_PG16.csv
PG16,50/50,2,55,352731,circle,square,0.5,0.5,1,square,410,positive,0.5,15,5,1014,FALSE,participant_PG16.csv
PG16,50/50,2,56,355168,square,circle,0.5,0.5,0,square,341,negative,-0.25,14.75,5,1014,FALSE,participant_PG16.csv
PG16,50/50,2,57,357482,square,circle,0.5,0.5,0,square,230,positive,0.5,15.25,5,1000,FALSE,participant_PG16.csv
PG16,50/50,2,58,360015,square,circle,0.5,0.5,0,square,463,negative,-0.25,15,5,1003,FALSE,participant_PG16.csv
PG16,50/50,2,59,362407,square,circle,0.5,0.5,0,square,314,positive,0.5,15.5,5,1010,FALSE,participant_PG16.csv
PG16,50/50,2,60,364777,square,circle,0.5,0.5,0,square,293,negative,-0.25,15.25,5,1005,FALSE,participant_PG16.csv
PG18,Practice,0,1,62691,circle,square,0.2,0.8,,,,,0,0,5,0,TRUE,participant_PG18.csv
PG18,Practice,0,1,63694,circle,square,0.2,0.8,,,,,0,0,5,1002,TRUE,participant_PG18.csv
PG18,Practice,0,2,66138,square,circle,0.8,0.2,1,circle,390,negative,0,0,5,1001,TRUE,participant_PG18.csv
PG18,Practice,0,3,69161,circle,square,0.2,0.8,0,circle,969,negative,0,0,5,1007,TRUE,participant_PG18.csv
PG18,Practice,0,4,71212,square,circle,0.8,0.2,,,,,0,0,5,0,TRUE,participant_PG18.csv
PG18,Practice,0,4,72217,square,circle,0.8,0.2,,,,,0,0,5,1004,TRUE,participant_PG18.csv
PG18,Practice,0,5,75065,square,circle,0.8,0.2,0,square,779,negative,0,0,5,1016,TRUE,participant_PG18.csv
PG18,Practice,0,6,77201,circle,square,0.2,0.8,1,square,80,negative,0,0,5,1003,TRUE,participant_PG18.csv
PG18,Practice,0,7,79855,square,circle,0.8,0.2,0,square,584,positive,0,0,5,1015,TRUE,participant_PG18.csv
PG18,Practice,0,8,82503,circle,square,0.2,0.8,1,square,579,positive,0,0,5,1015,TRUE,participant_PG18.csv
PG18,Practice,0,9,85193,circle,square,0.2,0.8,1,square,633,positive,0,0,5,1006,TRUE,participant_PG18.csv
PG18,Practice,0,10,87801,square,circle,0.8,0.2,0,square,536,positive,0,0,5,1003,TRUE,participant_PG18.csv
PG18,Practice,0,11,90232,circle,square,0.2,0.8,1,square,373,positive,0,0,5,1002,TRUE,participant_PG18.csv
PG18,Practice,0,12,92569,circle,square,0.2,0.8,1,square,289,positive,0,0,5,1003,TRUE,participant_PG18.csv
PG18,Practice,0,13,94915,square,circle,0.8,0.2,0,square,291,negative,0,0,5,1000,TRUE,participant_PG18.csv
PG18,Practice,0,14,97496,circle,square,0.2,0.8,0,circle,520,negative,0,0,5,1007,TRUE,participant_PG18.csv
PG18,Practice,0,15,99936,square,circle,0.8,0.2,1,circle,368,negative,0,0,5,1015,TRUE,participant_PG18.csv
PG18,Practice,0,16,102487,square,circle,0.8,0.2,0,square,499,positive,0,0,5,1003,TRUE,participant_PG18.csv
PG18,Practice,0,17,104977,square,circle,0.8,0.2,0,square,437,negative,0,0,5,1005,TRUE,participant_PG18.csv
PG18,Practice,0,18,107496,square,circle,0.8,0.2,0,square,455,positive,0,0,5,1009,TRUE,participant_PG18.csv
PG18,Practice,0,19,109832,circle,square,0.2,0.8,1,square,272,positive,0,0,5,1015,TRUE,participant_PG18.csv
PG18,Practice,0,20,112223,circle,square,0.2,0.8,1,square,340,positive,0,0,5,1001,TRUE,participant_PG18.csv
PG18,80/20,1,1,121072,square,circle,0.8,0.2,0,square,706,positive,0.5,0.5,5,1000,FALSE,participant_PG18.csv
PG18,80/20,1,2,123436,circle,square,0.2,0.8,1,square,290,positive,0.5,1,5,1014,FALSE,participant_PG18.csv
PG18,80/20,1,3,125768,square,circle,0.8,0.2,0,square,274,positive,0.5,1.5,5,1004,FALSE,participant_PG18.csv
PG18,80/20,1,4,128105,circle,square,0.2,0.8,1,square,277,positive,0.5,2,5,1008,FALSE,participant_PG18.csv
PG18,80/20,1,5,130434,square,circle,0.8,0.2,0,square,273,positive,0.5,2.5,5,1008,FALSE,participant_PG18.csv
PG18,80/20,1,6,132799,circle,square,0.2,0.8,1,square,307,positive,0.5,3,5,1003,FALSE,participant_PG18.csv
PG18,80/20,1,7,135208,circle,square,0.2,0.8,1,square,340,positive,0.5,3.5,5,1013,FALSE,participant_PG18.csv
PG18,80/20,1,8,137501,circle,square,0.2,0.8,1,square,240,positive,0.5,4,5,1000,FALSE,participant_PG18.csv
PG18,80/20,1,9,139835,circle,square,0.2,0.8,1,square,274,positive,0.5,4.5,5,1001,FALSE,participant_PG18.csv
PG18,80/20,1,10,142172,circle,square,0.2,0.8,1,square,273,positive,0.5,5,5,1013,FALSE,participant_PG18.csv
PG18,80/20,1,11,144584,circle,square,0.2,0.8,1,square,353,positive,0.5,5.5,5,1007,FALSE,participant_PG18.csv
PG18,80/20,1,12,146942,square,circle,0.8,0.2,0,square,306,positive,0.5,6,5,1007,FALSE,participant_PG18.csv
PG18,80/20,1,13,149279,circle,square,0.2,0.8,1,square,274,positive,0.5,6.5,5,1015,FALSE,participant_PG18.csv
PG18,80/20,1,14,151630,circle,square,0.2,0.8,1,square,275,positive,0.5,7,5,1012,FALSE,participant_PG18.csv
PG18,80/20,1,15,153941,circle,square,0.2,0.8,1,square,245,positive,0.5,7.5,5,1014,FALSE,participant_PG18.csv
PG18,80/20,1,16,156429,circle,square,0.2,0.8,1,square,433,positive,0.5,8,5,1005,FALSE,participant_PG18.csv
PG18,80/20,1,17,158789,square,circle,0.8,0.2,0,square,308,positive,0.5,8.5,5,1003,FALSE,participant_PG18.csv
PG18,80/20,1,18,161170,circle,square,0.2,0.8,1,square,307,positive,0.5,9,5,1012,FALSE,participant_PG18.csv
PG18,80/20,1,19,163483,circle,square,0.2,0.8,1,square,244,positive,0.5,9.5,5,1015,FALSE,participant_PG18.csv
PG18,80/20,1,20,165807,square,circle,0.8,0.2,0,square,256,positive,0.5,10,5,1008,FALSE,participant_PG18.csv
PG18,80/20,1,21,168075,circle,square,0.2,0.8,1,square,210,positive,0.5,10.5,5,1006,FALSE,participant_PG18.csv
PG18,80/20,1,22,170364,square,circle,0.8,0.2,0,square,225,positive,0.5,11,5,1000,FALSE,participant_PG18.csv
PG18,80/20,1,23,172706,circle,square,0.2,0.8,1,square,289,positive,0.5,11.5,5,1004,FALSE,participant_PG18.csv
PG18,80/20,1,24,174965,circle,square,0.2,0.8,1,square,193,positive,0.5,12,5,1016,FALSE,participant_PG18.csv
PG18,80/20,1,25,177326,circle,square,0.2,0.8,1,square,290,negative,-0.25,11.75,5,1016,FALSE,participant_PG18.csv
PG18,80/20,1,26,179609,square,circle,0.8,0.2,1,circle,227,negative,-0.25,11.5,5,1004,FALSE,participant_PG18.csv
PG18,80/20,1,27,181781,square,circle,0.8,0.2,0,square,111,positive,0.5,12,5,1015,FALSE,participant_PG18.csv
PG18,80/20,1,28,183888,circle,square,0.2,0.8,1,square,48,negative,-0.25,11.75,5,1006,FALSE,participant_PG18.csv
PG18,80/20,1,29,186387,circle,square,0.2,0.8,1,square,437,positive,0.5,12.25,5,1012,FALSE,participant_PG18.csv
PG18,80/20,1,30,188621,square,circle,0.8,0.2,1,circle,175,positive,0.5,12.75,5,1001,FALSE,participant_PG18.csv
PG18,80/20,1,31,190818,square,circle,0.8,0.2,1,circle,128,negative,-0.25,12.5,5,1016,FALSE,participant_PG18.csv
PG18,80/20,1,32,193040,circle,square,0.2,0.8,1,square,145,positive,0.5,13,5,1015,FALSE,participant_PG18.csv
PG18,80/20,1,33,195392,square,circle,0.8,0.2,0,square,289,negative,-0.25,12.75,5,1001,FALSE,participant_PG18.csv
PG18,80/20,1,34,197743,square,circle,0.8,0.2,1,circle,293,negative,-0.25,12.5,5,1010,FALSE,participant_PG18.csv
PG18,80/20,1,35,199953,square,circle,0.8,0.2,1,circle,145,negative,-0.25,12.25,5,1015,FALSE,participant_PG18.csv
PG18,80/20,1,36,202100,square,circle,0.8,0.2,0,square,80,negative,-0.25,12,5,1007,FALSE,participant_PG18.csv
PG18,80/20,1,37,204428,circle,square,0.2,0.8,1,square,273,positive,0.5,12.5,5,1003,FALSE,participant_PG18.csv
PG18,80/20,1,38,206935,square,circle,0.8,0.2,1,circle,451,negative,-0.25,12.25,5,1005,FALSE,participant_PG18.csv
PG18,80/20,1,39,209246,circle,square,0.2,0.8,1,square,246,negative,-0.25,12,5,1012,FALSE,participant_PG18.csv
PG18,80/20,1,40,211352,circle,square,0.2,0.8,1,square,48,positive,0.5,12.5,5,1003,FALSE,participant_PG18.csv
PG18,80/20,1,41,213721,circle,square,0.2,0.8,1,square,304,negative,-0.25,12.25,5,1015,FALSE,participant_PG18.csv
PG18,80/20,1,42,216002,circle,square,0.2,0.8,1,square,224,negative,-0.25,12,5,1000,FALSE,participant_PG18.csv
PG18,80/20,1,43,218282,square,circle,0.8,0.2,1,circle,226,negative,-0.25,11.75,5,1003,FALSE,participant_PG18.csv
PG18,80/20,1,44,220648,circle,square,0.2,0.8,0,circle,292,negative,-0.25,11.5,5,1003,FALSE,participant_PG18.csv
PG18,80/20,1,45,222976,circle,square,0.2,0.8,1,square,276,negative,-0.25,11.25,5,1003,FALSE,participant_PG18.csv
PG18,80/20,1,46,225396,square,circle,0.8,0.2,1,circle,370,positive,0.5,11.75,5,1003,FALSE,participant_PG18.csv
PG18,80/20,1,47,227702,square,circle,0.8,0.2,1,circle,241,negative,-0.25,11.5,5,1013,FALSE,participant_PG18.csv
PG18,80/20,1,48,230088,circle,square,0.2,0.8,1,square,329,positive,0.5,12,5,1002,FALSE,participant_PG18.csv
PG18,80/20,1,49,232358,circle,square,0.2,0.8,0,circle,211,negative,-0.25,11.75,5,1001,FALSE,participant_PG18.csv
PG18,80/20,1,50,234751,circle,square,0.2,0.8,1,square,323,positive,0.5,12.25,5,1014,FALSE,participant_PG18.csv
PG18,80/20,1,51,237263,circle,square,0.2,0.8,1,square,441,positive,0.5,12.75,5,1001,FALSE,participant_PG18.csv
PG18,80/20,1,52,239443,square,circle,0.8,0.2,0,square,128,positive,0.5,13.25,5,1001,FALSE,participant_PG18.csv
PG18,80/20,1,53,241751,square,circle,0.8,0.2,1,circle,227,negative,-0.25,13,5,1015,FALSE,participant_PG18.csv
PG18,80/20,1,54,244212,square,circle,0.8,0.2,0,square,402,positive,0.5,13.5,5,1000,FALSE,participant_PG18.csv
PG18,80/20,1,55,246469,circle,square,0.2,0.8,1,square,210,negative,-0.25,13.25,5,1003,FALSE,participant_PG18.csv
PG18,80/20,1,56,249296,circle,square,0.2,0.8,1,square,770,positive,0.5,13.75,5,1014,FALSE,participant_PG18.csv
PG18,80/20,1,57,251620,circle,square,0.2,0.8,1,square,261,negative,-0.25,13.5,5,1013,FALSE,participant_PG18.csv
PG18,80/20,1,58,253967,square,circle,0.8,0.2,0,square,291,positive,0.5,14,5,1009,FALSE,participant_PG18.csv
PG18,80/20,1,59,256247,circle,square,0.2,0.8,1,square,226,positive,0.5,14.5,5,1000,FALSE,participant_PG18.csv
PG18,80/20,1,60,258631,circle,square,0.2,0.8,1,square,323,positive,0.5,15,5,1015,FALSE,participant_PG18.csv
PG18,50/50,2,1,267736,circle,square,0.5,0.5,1,square,450,positive,0.5,15.5,5,1013,FALSE,participant_PG18.csv
PG18,50/50,2,2,270022,circle,square,0.5,0.5,1,square,209,positive,0.5,16,5,1013,FALSE,participant_PG18.csv
PG18,50/50,2,3,272323,square,circle,0.5,0.5,0,square,226,positive,0.5,16.5,5,1013,FALSE,participant_PG18.csv
PG18,50/50,2,4,274664,square,circle,0.5,0.5,0,square,276,negative,-0.25,16.25,5,1016,FALSE,participant_PG18.csv
PG18,50/50,2,5,276938,square,circle,0.5,0.5,1,circle,209,negative,-0.25,16,5,1001,FALSE,participant_PG18.csv
PG18,50/50,2,6,279215,circle,square,0.5,0.5,1,square,210,negative,-0.25,15.75,5,1011,FALSE,participant_PG18.csv
PG18,50/50,2,7,281475,circle,square,0.5,0.5,1,square,191,positive,0.5,16.25,5,1015,FALSE,participant_PG18.csv
PG18,50/50,2,8,283805,square,circle,0.5,0.5,0,square,278,positive,0.5,16.75,5,1002,FALSE,participant_PG18.csv
PG18,50/50,2,9,286068,circle,square,0.5,0.5,1,square,212,negative,-0.25,16.5,5,1004,FALSE,participant_PG18.csv
PG18,50/50,2,10,288474,circle,square,0.5,0.5,1,square,351,positive,0.5,17,5,1000,FALSE,participant_PG18.csv
PG18,50/50,2,11,290540,square,circle,0.5,0.5,0,square,16,negative,-0.25,16.75,5,1004,FALSE,participant_PG18.csv
PG18,50/50,2,12,292747,circle,square,0.5,0.5,1,square,143,negative,-0.25,16.5,5,1011,FALSE,participant_PG18.csv
PG18,50/50,2,13,294951,circle,square,0.5,0.5,0,circle,145,positive,0.5,17,5,1001,FALSE,participant_PG18.csv
PG18,50/50,2,14,297265,square,circle,0.5,0.5,1,circle,245,positive,0.5,17.5,5,1015,FALSE,participant_PG18.csv
PG18,50/50,2,15,299478,circle,square,0.5,0.5,0,circle,131,positive,0.5,18,5,1012,FALSE,participant_PG18.csv
PG18,50/50,2,16,301967,square,circle,0.5,0.5,1,circle,433,negative,-0.25,17.75,5,1002,FALSE,participant_PG18.csv
PG18,50/50,2,17,304278,circle,square,0.5,0.5,1,square,241,positive,0.5,18.25,5,1014,FALSE,participant_PG18.csv
PG18,50/50,2,18,306673,circle,square,0.5,0.5,1,square,341,negative,-0.25,18,5,1009,FALSE,participant_PG18.csv
PG18,50/50,2,19,308975,circle,square,0.5,0.5,1,square,243,positive,0.5,18.5,5,1012,FALSE,participant_PG18.csv
PG18,50/50,2,20,311317,circle,square,0.5,0.5,1,square,274,negative,-0.25,18.25,5,1009,FALSE,participant_PG18.csv
PG18,50/50,2,21,313674,square,circle,0.5,0.5,0,square,308,positive,0.5,18.75,5,1003,FALSE,participant_PG18.csv
PG18,50/50,2,22,316040,square,circle,0.5,0.5,0,square,296,negative,-0.25,18.5,5,1008,FALSE,participant_PG18.csv
PG18,50/50,2,23,318805,circle,square,0.5,0.5,1,square,714,positive,0.5,19,5,1007,FALSE,participant_PG18.csv
PG18,50/50,2,24,321165,circle,square,0.5,0.5,1,square,307,positive,0.5,19.5,5,1002,FALSE,participant_PG18.csv
PG18,50/50,2,25,323245,circle,square,0.5,0.5,1,square,16,positive,0.5,20,5,1007,FALSE,participant_PG18.csv
PG18,50/50,2,26,325787,square,circle,0.5,0.5,0,square,489,positive,0.5,20.5,5,1001,FALSE,participant_PG18.csv
PG18,50/50,2,27,327962,circle,square,0.5,0.5,1,square,113,negative,-0.25,20.25,5,1006,FALSE,participant_PG18.csv
PG18,50/50,2,28,330389,square,circle,0.5,0.5,0,square,372,negative,-0.25,20,5,1006,FALSE,participant_PG18.csv
PG18,50/50,2,29,333025,square,circle,0.5,0.5,1,circle,582,positive,0.5,20.5,5,1005,FALSE,participant_PG18.csv
PG18,50/50,2,30,335373,square,circle,0.5,0.5,1,circle,286,negative,-0.25,20.25,5,1011,FALSE,participant_PG18.csv
PG18,50/50,2,31,337719,square,circle,0.5,0.5,0,square,274,negative,-0.25,20,5,1005,FALSE,participant_PG18.csv
PG18,50/50,2,32,340048,circle,square,0.5,0.5,1,square,275,positive,0.5,20.5,5,1004,FALSE,participant_PG18.csv
PG18,50/50,2,33,342424,square,circle,0.5,0.5,1,circle,306,negative,-0.25,20.25,5,1014,FALSE,participant_PG18.csv
PG18,50/50,2,34,344799,circle,square,0.5,0.5,1,square,304,positive,0.5,20.75,5,1015,FALSE,participant_PG18.csv
PG18,50/50,2,35,347109,circle,square,0.5,0.5,1,square,258,negative,-0.25,20.5,5,1002,FALSE,participant_PG18.csv
PG18,50/50,2,36,349468,square,circle,0.5,0.5,1,circle,291,positive,0.5,21,5,1014,FALSE,participant_PG18.csv
PG18,50/50,2,37,351959,square,circle,0.5,0.5,1,circle,438,negative,-0.25,20.75,5,1003,FALSE,participant_PG18.csv
PG18,50/50,2,38,354269,square,circle,0.5,0.5,1,circle,243,positive,0.5,21.25,5,1015,FALSE,participant_PG18.csv
PG18,50/50,2,39,356627,square,circle,0.5,0.5,1,circle,306,negative,-0.25,21,5,1003,FALSE,participant_PG18.csv
PG18,50/50,2,40,359640,square,circle,0.5,0.5,1,circle,956,negative,-0.25,20.75,5,1010,FALSE,participant_PG18.csv
PG18,50/50,2,41,362277,square,circle,0.5,0.5,0,square,578,positive,0.5,21.25,5,1010,FALSE,participant_PG18.csv
PG18,50/50,2,42,364583,circle,square,0.5,0.5,1,square,241,negative,-0.25,21,5,1013,FALSE,participant_PG18.csv
PG18,50/50,2,43,366902,circle,square,0.5,0.5,0,circle,256,positive,0.5,21.5,5,1011,FALSE,participant_PG18.csv
PG18,50/50,2,44,369345,circle,square,0.5,0.5,1,square,383,positive,0.5,22,5,1013,FALSE,participant_PG18.csv
PG18,50/50,2,45,371722,circle,square,0.5,0.5,0,circle,322,negative,-0.25,21.75,5,1009,FALSE,participant_PG18.csv
PG18,50/50,2,46,374010,circle,square,0.5,0.5,1,square,224,negative,-0.25,21.5,5,1013,FALSE,participant_PG18.csv
PG18,50/50,2,47,376481,square,circle,0.5,0.5,1,circle,405,positive,0.5,22,5,1006,FALSE,participant_PG18.csv
PG18,50/50,2,48,378841,circle,square,0.5,0.5,1,square,306,positive,0.5,22.5,5,1001,FALSE,participant_PG18.csv
PG18,50/50,2,49,381178,square,circle,0.5,0.5,0,square,279,negative,-0.25,22.25,5,1004,FALSE,participant_PG18.csv
PG18,50/50,2,50,383636,circle,square,0.5,0.5,1,square,401,negative,-0.25,22,5,1000,FALSE,participant_PG18.csv
PG18,50/50,2,51,386053,square,circle,0.5,0.5,0,square,353,negative,-0.25,21.75,5,1012,FALSE,participant_PG18.csv
PG18,50/50,2,52,388350,square,circle,0.5,0.5,1,circle,243,positive,0.5,22.25,5,1003,FALSE,participant_PG18.csv
PG18,50/50,2,53,390808,circle,square,0.5,0.5,0,circle,390,positive,0.5,22.75,5,1001,FALSE,participant_PG18.csv
PG18,50/50,2,54,393779,circle,square,0.5,0.5,1,square,916,negative,-0.25,22.5,5,1006,FALSE,participant_PG18.csv
PG18,50/50,2,55,396576,circle,square,0.5,0.5,0,circle,742,positive,0.5,23,5,1008,FALSE,participant_PG18.csv
PG18,50/50,2,56,399197,circle,square,0.5,0.5,0,circle,556,positive,0.5,23.5,5,1015,FALSE,participant_PG18.csv
PG18,50/50,2,57,401503,square,circle,0.5,0.5,1,circle,243,positive,0.5,24,5,1007,FALSE,participant_PG18.csv
PG18,50/50,2,58,403890,square,circle,0.5,0.5,1,circle,320,positive,0.5,24.5,5,1014,FALSE,participant_PG18.csv
PG18,50/50,2,59,406392,square,circle,0.5,0.5,1,circle,436,negative,-0.25,24.25,5,1014,FALSE,participant_PG18.csv
PG18,50/50,2,60,408721,circle,square,0.5,0.5,1,square,259,negative,-0.25,24,5,1014,FALSE,participant_PG18.csv
PG19,Practice,0,1,23521,square,circle,0.2,0.8,,,,,0,0,5,0,TRUE,participant_PG19.csv
PG19,Practice,0,1,24534,square,circle,0.2,0.8,,,,,0,0,5,1012,TRUE,participant_PG19.csv
PG19,Practice,0,2,26927,circle,square,0.8,0.2,0,circle,312,positive,0,0,5,1003,TRUE,participant_PG19.csv
PG19,Practice,0,3,29273,square,circle,0.2,0.8,1,circle,279,positive,0,0,5,1002,TRUE,participant_PG19.csv
PG19,Practice,0,4,31469,square,circle,0.2,0.8,0,square,112,positive,0,0,5,1004,TRUE,participant_PG19.csv
PG19,Practice,0,5,33832,square,circle,0.2,0.8,1,circle,295,positive,0,0,5,1003,TRUE,participant_PG19.csv
PG19,Practice,0,6,36032,circle,square,0.8,0.2,0,circle,133,positive,0,0,5,1000,TRUE,participant_PG19.csv
PG19,Practice,0,7,38172,circle,square,0.8,0.2,1,square,52,negative,0,0,5,1005,TRUE,participant_PG19.csv
PG19,Practice,0,8,40551,circle,square,0.8,0.2,0,circle,300,positive,0,0,5,1010,TRUE,participant_PG19.csv
PG19,Practice,0,9,42975,circle,square,0.8,0.2,1,square,346,negative,0,0,5,1000,TRUE,participant_PG19.csv
PG19,Practice,0,10,45416,square,circle,0.2,0.8,1,circle,373,positive,0,0,5,1003,TRUE,participant_PG19.csv
PG19,Practice,0,11,47868,circle,square,0.8,0.2,0,circle,363,positive,0,0,5,1016,TRUE,participant_PG19.csv
PG19,Practice,0,12,50618,square,circle,0.2,0.8,1,circle,670,negative,0,0,5,1014,TRUE,participant_PG19.csv
PG19,Practice,0,13,53033,circle,square,0.8,0.2,0,circle,347,negative,0,0,5,1003,TRUE,participant_PG19.csv
PG19,Practice,0,14,55466,circle,square,0.8,0.2,1,square,365,negative,0,0,5,1000,TRUE,participant_PG19.csv
PG19,Practice,0,15,57871,circle,square,0.8,0.2,0,circle,327,positive,0,0,5,1009,TRUE,participant_PG19.csv
PG19,Practice,0,16,60876,square,circle,0.2,0.8,1,circle,923,negative,0,0,5,1008,TRUE,participant_PG19.csv
PG19,Practice,0,17,63553,circle,square,0.8,0.2,0,circle,598,negative,0,0,5,1010,TRUE,participant_PG19.csv
PG19,Practice,0,18,65976,circle,square,0.8,0.2,0,circle,355,negative,0,0,5,1001,TRUE,participant_PG19.csv
PG19,Practice,0,19,68343,circle,square,0.8,0.2,1,square,289,negative,0,0,5,1000,TRUE,participant_PG19.csv
PG19,Practice,0,20,71051,square,circle,0.2,0.8,0,square,617,negative,0,0,5,1014,TRUE,participant_PG19.csv
PG19,80/20,1,1,74199,square,circle,0.2,0.8,,,,,0,0,5,0,FALSE,participant_PG19.csv
PG19,80/20,1,1,75214,square,circle,0.2,0.8,,,,,0,0,5,1014,FALSE,participant_PG19.csv
PG19,80/20,1,2,77602,circle,square,0.8,0.2,1,square,311,negative,-0.25,-0.25,5,1011,FALSE,participant_PG19.csv
PG19,80/20,1,3,79943,square,circle,0.2,0.8,1,circle,264,positive,0.5,0.25,5,1000,FALSE,participant_PG19.csv
PG19,80/20,1,4,82307,circle,square,0.8,0.2,0,circle,292,positive,0.5,0.75,5,1005,FALSE,participant_PG19.csv
PG19,80/20,1,5,84862,circle,square,0.8,0.2,1,square,488,positive,0.5,1.25,5,1000,FALSE,participant_PG19.csv
PG19,80/20,1,6,87216,circle,square,0.8,0.2,1,square,274,negative,-0.25,1,5,1007,FALSE,participant_PG19.csv
PG19,80/20,1,7,89591,square,circle,0.2,0.8,1,circle,298,positive,0.5,1.5,5,1006,FALSE,participant_PG19.csv
PG19,80/20,1,8,91933,circle,square,0.8,0.2,0,circle,264,positive,0.5,2,5,1015,FALSE,participant_PG19.csv
PG19,80/20,1,9,94262,square,circle,0.2,0.8,0,square,245,negative,-0.25,1.75,5,1011,FALSE,participant_PG19.csv
PG19,80/20,1,10,96599,square,circle,0.2,0.8,1,circle,258,positive,0.5,2.25,5,1013,FALSE,participant_PG19.csv
PG19,80/20,1,11,98960,circle,square,0.8,0.2,0,circle,277,positive,0.5,2.75,5,1013,FALSE,participant_PG19.csv
PG19,80/20,1,12,101292,square,circle,0.2,0.8,1,circle,249,negative,-0.25,2.5,5,1000,FALSE,participant_PG19.csv
PG19,80/20,1,13,103663,circle,square,0.8,0.2,0,circle,281,positive,0.5,3,5,1011,FALSE,participant_PG19.csv
PG19,80/20,1,14,106003,circle,square,0.8,0.2,0,circle,259,positive,0.5,3.5,5,1006,FALSE,participant_PG19.csv
PG19,80/20,1,15,108353,circle,square,0.8,0.2,1,square,264,negative,-0.25,3.25,5,1014,FALSE,participant_PG19.csv
PG19,80/20,1,16,110781,square,circle,0.2,0.8,0,square,344,negative,-0.25,3,5,1003,FALSE,participant_PG19.csv
PG19,80/20,1,17,113303,square,circle,0.2,0.8,0,square,455,negative,-0.25,2.75,5,1002,FALSE,participant_PG19.csv
PG19,80/20,1,18,115667,circle,square,0.8,0.2,1,square,283,negative,-0.25,2.5,5,1005,FALSE,participant_PG19.csv
PG19,80/20,1,19,118143,square,circle,0.2,0.8,0,square,406,negative,-0.25,2.25,5,1006,FALSE,participant_PG19.csv
PG19,80/20,1,20,120388,square,circle,0.2,0.8,0,square,146,negative,-0.25,2,5,1017,FALSE,participant_PG19.csv
PG19,80/20,1,21,122720,square,circle,0.2,0.8,0,square,249,negative,-0.25,1.75,5,1012,FALSE,participant_PG19.csv
PG19,80/20,1,22,125133,circle,square,0.8,0.2,1,square,343,positive,0.5,2.25,5,1001,FALSE,participant_PG19.csv
PG19,80/20,1,23,127501,square,circle,0.2,0.8,1,circle,292,positive,0.5,2.75,5,1005,FALSE,participant_PG19.csv
PG19,80/20,1,24,129815,circle,square,0.8,0.2,1,square,246,positive,0.5,3.25,5,1000,FALSE,participant_PG19.csv
PG19,80/20,1,25,132149,circle,square,0.8,0.2,0,circle,244,positive,0.5,3.75,5,1007,FALSE,participant_PG19.csv
PG19,80/20,1,26,134494,square,circle,0.2,0.8,1,circle,260,positive,0.5,4.25,5,1004,FALSE,participant_PG19.csv
PG19,80/20,1,27,136627,circle,square,0.8,0.2,0,circle,64,positive,0.5,4.75,5,1002,FALSE,participant_PG19.csv
PG19,80/20,1,28,138989,circle,square,0.8,0.2,0,circle,266,positive,0.5,5.25,5,1012,FALSE,participant_PG19.csv
PG19,80/20,1,29,141302,circle,square,0.8,0.2,1,square,231,negative,-0.25,5,5,1014,FALSE,participant_PG19.csv
PG19,80/20,1,30,143654,circle,square,0.8,0.2,0,circle,275,positive,0.5,5.5,5,1009,FALSE,participant_PG19.csv
PG19,80/20,1,31,146031,circle,square,0.8,0.2,1,square,293,negative,-0.25,5.25,5,1002,FALSE,participant_PG19.csv
PG19,80/20,1,32,148396,square,circle,0.2,0.8,0,square,280,negative,-0.25,5,5,1012,FALSE,participant_PG19.csv
PG19,80/20,1,33,150731,circle,square,0.8,0.2,1,square,249,negative,-0.25,4.75,5,1016,FALSE,participant_PG19.csv
PG19,80/20,1,34,153101,circle,square,0.8,0.2,0,circle,278,positive,0.5,5.25,5,1013,FALSE,participant_PG19.csv
PG19,80/20,1,35,155478,square,circle,0.2,0.8,0,square,290,negative,-0.25,5,5,1014,FALSE,participant_PG19.csv
PG19,80/20,1,36,157831,square,circle,0.2,0.8,1,circle,281,positive,0.5,5.5,5,1004,FALSE,participant_PG19.csv
PG19,80/20,1,37,159910,square,circle,0.2,0.8,,,,,0,5.5,5,0,FALSE,participant_PG19.csv
PG19,80/20,1,37,160925,square,circle,0.2,0.8,,,,,0,5.5,5,1014,FALSE,participant_PG19.csv
PG19,80/20,1,38,163005,square,circle,0.2,0.8,,,,,0,5.5,5,0,FALSE,participant_PG19.csv
PG19,80/20,1,38,164020,square,circle,0.2,0.8,,,,,0,5.5,5,1015,FALSE,participant_PG19.csv
PG19,80/20,1,39,166452,square,circle,0.2,0.8,0,square,343,negative,-0.25,5.25,5,1011,FALSE,participant_PG19.csv
PG19,80/20,1,40,168766,square,circle,0.2,0.8,1,circle,248,positive,0.5,5.75,5,1001,FALSE,participant_PG19.csv
PG19,80/20,1,41,171156,circle,square,0.8,0.2,1,square,300,negative,-0.25,5.5,5,1009,FALSE,participant_PG19.csv
PG19,80/20,1,42,173492,square,circle,0.2,0.8,0,square,246,negative,-0.25,5.25,5,1015,FALSE,participant_PG19.csv
PG19,80/20,1,43,175789,circle,square,0.8,0.2,0,circle,210,positive,0.5,5.75,5,1011,FALSE,participant_PG19.csv
PG19,80/20,1,44,178564,square,circle,0.2,0.8,0,square,680,negative,-0.25,5.5,5,1009,FALSE,participant_PG19.csv
PG19,80/20,1,45,180914,square,circle,0.2,0.8,1,circle,263,positive,0.5,6,5,1013,FALSE,participant_PG19.csv
PG19,80/20,1,46,183268,circle,square,0.8,0.2,1,square,265,negative,-0.25,5.75,5,1015,FALSE,participant_PG19.csv
PG19,80/20,1,47,185578,square,circle,0.2,0.8,0,square,242,negative,-0.25,5.5,5,1001,FALSE,participant_PG19.csv
PG19,80/20,1,48,187859,circle,square,0.8,0.2,0,circle,194,positive,0.5,6,5,1015,FALSE,participant_PG19.csv
PG19,80/20,1,49,190204,square,circle,0.2,0.8,1,circle,267,positive,0.5,6.5,5,1006,FALSE,participant_PG19.csv
PG19,80/20,1,50,192577,circle,square,0.8,0.2,1,square,289,positive,0.5,7,5,1011,FALSE,participant_PG19.csv
PG19,80/20,1,51,194895,square,circle,0.2,0.8,0,square,241,negative,-0.25,6.75,5,1000,FALSE,participant_PG19.csv
PG19,80/20,1,52,197135,circle,square,0.8,0.2,1,square,148,negative,-0.25,6.5,5,1012,FALSE,participant_PG19.csv
PG19,80/20,1,53,199723,square,circle,0.2,0.8,0,square,523,negative,-0.25,6.25,5,1000,FALSE,participant_PG19.csv
PG19,80/20,1,54,202325,circle,square,0.8,0.2,1,square,522,negative,-0.25,6,5,1001,FALSE,participant_PG19.csv
PG19,80/20,1,55,204658,circle,square,0.8,0.2,1,square,265,negative,-0.25,5.75,5,1004,FALSE,participant_PG19.csv
PG19,80/20,1,56,207011,square,circle,0.2,0.8,1,circle,265,positive,0.5,6.25,5,1015,FALSE,participant_PG19.csv
PG19,80/20,1,57,209329,circle,square,0.8,0.2,0,circle,249,positive,0.5,6.75,5,1000,FALSE,participant_PG19.csv
PG19,80/20,1,58,211682,circle,square,0.8,0.2,1,square,276,negative,-0.25,6.5,5,1009,FALSE,participant_PG19.csv
PG19,80/20,1,59,213875,circle,square,0.8,0.2,0,circle,116,positive,0.5,7,5,1010,FALSE,participant_PG19.csv
PG19,80/20,1,60,216385,square,circle,0.2,0.8,1,circle,426,positive,0.5,7.5,5,1014,FALSE,participant_PG19.csv
PG19,50/50,2,1,220053,square,circle,0.5,0.5,,,,,0,7.5,5,0,FALSE,participant_PG19.csv
PG19,50/50,2,1,221053,square,circle,0.5,0.5,,,,,0,7.5,5,1000,FALSE,participant_PG19.csv
PG19,50/50,2,2,223434,circle,square,0.5,0.5,1,square,298,negative,-0.25,7.25,5,1014,FALSE,participant_PG19.csv
PG19,50/50,2,3,226048,square,circle,0.5,0.5,1,circle,539,negative,-0.25,7,5,1001,FALSE,participant_PG19.csv
PG19,50/50,2,4,228397,circle,square,0.5,0.5,0,circle,262,positive,0.5,7.5,5,1015,FALSE,participant_PG19.csv
PG19,50/50,2,5,230767,square,circle,0.5,0.5,1,circle,282,positive,0.5,8,5,1005,FALSE,participant_PG19.csv
PG19,50/50,2,6,233136,square,circle,0.5,0.5,1,circle,293,positive,0.5,8.5,5,1009,FALSE,participant_PG19.csv
PG19,50/50,2,7,235473,square,circle,0.5,0.5,0,square,256,negative,-0.25,8.25,5,1013,FALSE,participant_PG19.csv
PG19,50/50,2,8,237862,square,circle,0.5,0.5,1,circle,299,negative,-0.25,8,5,1008,FALSE,participant_PG19.csv
PG19,50/50,2,9,240284,square,circle,0.5,0.5,0,square,341,negative,-0.25,7.75,5,1014,FALSE,participant_PG19.csv
PG19,50/50,2,10,242611,circle,square,0.5,0.5,1,square,260,negative,-0.25,7.5,5,1001,FALSE,participant_PG19.csv
PG19,50/50,2,11,244947,circle,square,0.5,0.5,1,square,263,positive,0.5,8,5,1002,FALSE,participant_PG19.csv
PG19,50/50,2,12,247412,circle,square,0.5,0.5,1,square,374,positive,0.5,8.5,5,1009,FALSE,participant_PG19.csv
PG19,50/50,2,13,249482,circle,square,0.5,0.5,,,,,0,8.5,5,0,FALSE,participant_PG19.csv
PG19,50/50,2,13,250492,circle,square,0.5,0.5,,,,,0,8.5,5,1010,FALSE,participant_PG19.csv
PG19,50/50,2,14,252826,circle,square,0.5,0.5,1,square,258,negative,-0.25,8.25,5,1015,FALSE,participant_PG19.csv
PG19,50/50,2,15,255213,square,circle,0.5,0.5,0,square,308,positive,0.5,8.75,5,1015,FALSE,participant_PG19.csv
PG19,50/50,2,16,257286,circle,square,0.5,0.5,,,,,0,8.75,5,0,FALSE,participant_PG19.csv
PG19,50/50,2,16,258288,circle,square,0.5,0.5,,,,,0,8.75,5,1001,FALSE,participant_PG19.csv
PG19,50/50,2,17,260614,circle,square,0.5,0.5,0,circle,246,positive,0.5,9.25,5,1014,FALSE,participant_PG19.csv
PG19,50/50,2,18,262688,square,circle,0.5,0.5,,,,,0,9.25,5,0,FALSE,participant_PG19.csv
PG19,50/50,2,18,263695,square,circle,0.5,0.5,,,,,0,9.25,5,1006,FALSE,participant_PG19.csv
PG19,50/50,2,19,265995,circle,square,0.5,0.5,0,circle,213,positive,0.5,9.75,5,1008,FALSE,participant_PG19.csv
PG19,50/50,2,20,268297,circle,square,0.5,0.5,0,circle,214,negative,-0.25,9.5,5,1003,FALSE,participant_PG19.csv
PG19,50/50,2,21,270641,circle,square,0.5,0.5,0,circle,250,negative,-0.25,9.25,5,1014,FALSE,participant_PG19.csv
PG19,50/50,2,22,272990,square,circle,0.5,0.5,1,circle,266,positive,0.5,9.75,5,1015,FALSE,participant_PG19.csv
PG19,50/50,2,23,275905,circle,square,0.5,0.5,0,circle,833,negative,-0.25,9.5,5,1014,FALSE,participant_PG19.csv
PG19,50/50,2,24,278219,square,circle,0.5,0.5,0,square,227,negative,-0.25,9.25,5,1013,FALSE,participant_PG19.csv
PG19,50/50,2,25,280386,circle,square,0.5,0.5,0,circle,97,positive,0.5,9.75,5,1003,FALSE,participant_PG19.csv
PG19,50/50,2,26,282544,square,circle,0.5,0.5,1,circle,83,positive,0.5,10.25,5,1010,FALSE,participant_PG19.csv
PG19,50/50,2,27,284886,circle,square,0.5,0.5,1,square,272,positive,0.5,10.75,5,1001,FALSE,participant_PG19.csv
PG19,50/50,2,28,287227,square,circle,0.5,0.5,1,circle,249,positive,0.5,11.25,5,1014,FALSE,participant_PG19.csv
PG19,50/50,2,29,289493,square,circle,0.5,0.5,0,square,192,positive,0.5,11.75,5,1010,FALSE,participant_PG19.csv
PG19,50/50,2,30,291792,circle,square,0.5,0.5,0,circle,232,negative,-0.25,11.5,5,1001,FALSE,participant_PG19.csv
PG19,50/50,2,31,294334,circle,square,0.5,0.5,1,square,455,positive,0.5,12,5,1006,FALSE,participant_PG19.csv
PG19,50/50,2,32,296422,circle,square,0.5,0.5,0,circle,17,positive,0.5,12.5,5,1003,FALSE,participant_PG19.csv
PG19,50/50,2,33,298552,circle,square,0.5,0.5,0,circle,49,positive,0.5,13,5,1000,FALSE,participant_PG19.csv
PG19,50/50,2,34,301265,circle,square,0.5,0.5,0,circle,638,positive,0.5,13.5,5,1011,FALSE,participant_PG19.csv
PG19,50/50,2,35,303613,square,circle,0.5,0.5,0,square,282,negative,-0.25,13.25,5,1000,FALSE,participant_PG19.csv
PG19,50/50,2,36,305776,circle,square,0.5,0.5,1,square,81,negative,-0.25,13,5,1004,FALSE,participant_PG19.csv
PG19,50/50,2,37,308416,square,circle,0.5,0.5,0,square,559,negative,-0.25,12.75,5,1012,FALSE,participant_PG19.csv
PG19,50/50,2,38,310804,square,circle,0.5,0.5,1,circle,296,negative,-0.25,12.5,5,1015,FALSE,participant_PG19.csv
PG19,50/50,2,39,313864,square,circle,0.5,0.5,0,square,980,positive,0.5,13,5,1008,FALSE,participant_PG19.csv
PG19,50/50,2,40,316221,square,circle,0.5,0.5,1,circle,281,negative,-0.25,12.75,5,1002,FALSE,participant_PG19.csv
PG19,50/50,2,41,318301,square,circle,0.5,0.5,,,,,0,12.75,5,0,FALSE,participant_PG19.csv
PG19,50/50,2,41,319308,square,circle,0.5,0.5,,,,,0,12.75,5,1007,FALSE,participant_PG19.csv
PG19,50/50,2,42,321801,circle,square,0.5,0.5,0,circle,426,positive,0.5,13.25,5,1002,FALSE,participant_PG19.csv
PG19,50/50,2,43,324328,circle,square,0.5,0.5,1,square,456,negative,-0.25,13,5,1004,FALSE,participant_PG19.csv
PG19,50/50,2,44,326874,square,circle,0.5,0.5,0,square,455,positive,0.5,13.5,5,1016,FALSE,participant_PG19.csv
PG19,50/50,2,45,329490,circle,square,0.5,0.5,0,circle,535,negative,-0.25,13.25,5,1014,FALSE,participant_PG19.csv
PG19,50/50,2,46,331910,circle,square,0.5,0.5,0,circle,346,positive,0.5,13.75,5,1007,FALSE,participant_PG19.csv
PG19,50/50,2,47,334422,square,circle,0.5,0.5,0,square,434,positive,0.5,14.25,5,1001,FALSE,participant_PG19.csv
PG19,50/50,2,48,336798,square,circle,0.5,0.5,0,square,295,negative,-0.25,14,5,1004,FALSE,participant_PG19.csv
PG19,50/50,2,49,339041,circle,square,0.5,0.5,0,circle,164,negative,-0.25,13.75,5,1003,FALSE,participant_PG19.csv
PG19,50/50,2,50,341564,square,circle,0.5,0.5,0,square,442,positive,0.5,14.25,5,1016,FALSE,participant_PG19.csv
PG19,50/50,2,51,344577,circle,square,0.5,0.5,0,circle,935,positive,0.5,14.75,5,1005,FALSE,participant_PG19.csv
PG19,50/50,2,52,347441,square,circle,0.5,0.5,0,square,778,negative,-0.25,14.5,5,1001,FALSE,participant_PG19.csv
PG19,50/50,2,53,350031,square,circle,0.5,0.5,1,circle,514,negative,-0.25,14.25,5,1015,FALSE,participant_PG19.csv
PG19,50/50,2,54,352576,square,circle,0.5,0.5,0,square,465,positive,0.5,14.75,5,1010,FALSE,participant_PG19.csv
PG19,50/50,2,55,355640,circle,square,0.5,0.5,1,square,987,positive,0.5,15.25,5,1010,FALSE,participant_PG19.csv
PG19,50/50,2,56,357727,circle,square,0.5,0.5,,,,,0,15.25,5,0,FALSE,participant_PG19.csv
PG19,50/50,2,56,358737,circle,square,0.5,0.5,,,,,0,15.25,5,1009,FALSE,participant_PG19.csv
PG19,50/50,2,57,361096,square,circle,0.5,0.5,1,circle,280,positive,0.5,15.75,5,1015,FALSE,participant_PG19.csv
PG19,50/50,2,58,363782,circle,square,0.5,0.5,1,square,599,negative,-0.25,15.5,5,1011,FALSE,participant_PG19.csv
PG19,50/50,2,59,366266,circle,square,0.5,0.5,0,circle,396,positive,0.5,16,5,1011,FALSE,participant_PG19.csv
PG19,50/50,2,60,368838,circle,square,0.5,0.5,1,square,485,negative,-0.25,15.75,5,1012,FALSE,participant_PG19.csv
PG22,Practice,0,1,63197,circle,square,0.8,0.2,,,,,0,0,5,0,TRUE,participant_PG22.csv
PG22,Practice,0,1,64202,circle,square,0.8,0.2,,,,,0,0,5,1004,TRUE,participant_PG22.csv
PG22,Practice,0,2,66296,circle,square,0.8,0.2,,,,,0,0,5,0,TRUE,participant_PG22.csv
PG22,Practice,0,2,67304,circle,square,0.8,0.2,,,,,0,0,5,1007,TRUE,participant_PG22.csv
PG22,Practice,0,3,69702,circle,square,0.8,0.2,1,square,296,negative,0,0,5,1012,TRUE,participant_PG22.csv
PG22,Practice,0,4,71785,square,circle,0.2,0.8,,,,,0,0,5,0,TRUE,participant_PG22.csv
PG22,Practice,0,4,72798,square,circle,0.2,0.8,,,,,0,0,5,1013,TRUE,participant_PG22.csv
PG22,Practice,0,5,75267,square,circle,0.2,0.8,0,square,376,negative,0,0,5,1010,TRUE,participant_PG22.csv
PG22,Practice,0,6,77894,circle,square,0.8,0.2,1,square,523,negative,0,0,5,1009,TRUE,participant_PG22.csv
PG22,Practice,0,7,80461,square,circle,0.2,0.8,0,square,476,negative,0,0,5,1001,TRUE,participant_PG22.csv
PG22,Practice,0,8,82841,circle,square,0.8,0.2,0,circle,283,negative,0,0,5,1009,TRUE,participant_PG22.csv
PG22,Practice,0,9,85266,circle,square,0.8,0.2,0,circle,330,positive,0,0,5,1005,TRUE,participant_PG22.csv
PG22,Practice,0,10,87766,square,circle,0.2,0.8,1,circle,413,positive,0,0,5,1008,TRUE,participant_PG22.csv
PG22,Practice,0,11,90057,circle,square,0.8,0.2,0,circle,195,positive,0,0,5,1006,TRUE,participant_PG22.csv
PG22,Practice,0,12,92364,square,circle,0.2,0.8,1,circle,211,positive,0,0,5,1011,TRUE,participant_PG22.csv
PG22,Practice,0,13,94789,square,circle,0.2,0.8,1,circle,332,negative,0,0,5,1007,TRUE,participant_PG22.csv
PG22,Practice,0,14,97375,circle,square,0.8,0.2,0,circle,492,positive,0,0,5,1006,TRUE,participant_PG22.csv
PG22,Practice,0,15,99867,circle,square,0.8,0.2,0,circle,397,positive,0,0,5,1004,TRUE,participant_PG22.csv
PG22,Practice,0,16,102326,circle,square,0.8,0.2,0,circle,361,positive,0,0,5,1008,TRUE,participant_PG22.csv
PG22,Practice,0,17,104805,circle,square,0.8,0.2,0,circle,383,positive,0,0,5,1007,TRUE,participant_PG22.csv
PG22,Practice,0,18,107170,square,circle,0.2,0.8,0,square,268,negative,0,0,5,1008,TRUE,participant_PG22.csv
PG22,Practice,0,19,109846,circle,square,0.8,0.2,0,circle,575,negative,0,0,5,1008,TRUE,participant_PG22.csv
PG22,Practice,0,20,112360,circle,square,0.8,0.2,0,circle,414,positive,0,0,5,1003,TRUE,participant_PG22.csv
PG22,80/20,1,1,119007,circle,square,0.8,0.2,0,circle,746,positive,0.5,0.5,5,1015,FALSE,participant_PG22.csv
PG22,80/20,1,2,121594,square,circle,0.2,0.8,0,square,494,negative,-0.25,0.25,5,1001,FALSE,participant_PG22.csv
PG22,80/20,1,3,123862,square,circle,0.2,0.8,1,circle,166,positive,0.5,0.75,5,1013,FALSE,participant_PG22.csv
PG22,80/20,1,4,126295,square,circle,0.2,0.8,1,circle,328,positive,0.5,1.25,5,1012,FALSE,participant_PG22.csv
PG22,80/20,1,5,128449,circle,square,0.8,0.2,0,circle,66,positive,0.5,1.75,5,1000,FALSE,participant_PG22.csv
PG22,80/20,1,6,130840,square,circle,0.2,0.8,1,circle,283,positive,0.5,2.25,5,1015,FALSE,participant_PG22.csv
PG22,80/20,1,7,133203,square,circle,0.2,0.8,1,circle,264,negative,-0.25,2,5,1012,FALSE,participant_PG22.csv
PG22,80/20,1,8,135625,circle,square,0.8,0.2,0,circle,329,positive,0.5,2.5,5,1004,FALSE,participant_PG22.csv
PG22,80/20,1,9,138003,circle,square,0.8,0.2,0,circle,280,positive,0.5,3,5,1011,FALSE,participant_PG22.csv
PG22,80/20,1,10,140345,square,circle,0.2,0.8,1,circle,246,negative,-0.25,2.75,5,1007,FALSE,participant_PG22.csv
PG22,80/20,1,11,142682,circle,square,0.8,0.2,0,circle,236,positive,0.5,3.25,5,1004,FALSE,participant_PG22.csv
PG22,80/20,1,12,145082,square,circle,0.2,0.8,1,circle,299,negative,-0.25,3,5,1007,FALSE,participant_PG22.csv
PG22,80/20,1,13,147443,circle,square,0.8,0.2,0,circle,266,positive,0.5,3.5,5,1006,FALSE,participant_PG22.csv
PG22,80/20,1,14,149777,square,circle,0.2,0.8,1,circle,247,positive,0.5,4,5,1001,FALSE,participant_PG22.csv
PG22,80/20,1,15,152199,square,circle,0.2,0.8,1,circle,313,positive,0.5,4.5,5,1011,FALSE,participant_PG22.csv
PG22,80/20,1,16,154581,square,circle,0.2,0.8,1,circle,282,negative,-0.25,4.25,5,1008,FALSE,participant_PG22.csv
PG22,80/20,1,17,156923,circle,square,0.8,0.2,0,circle,250,positive,0.5,4.75,5,1001,FALSE,participant_PG22.csv
PG22,80/20,1,18,159328,circle,square,0.8,0.2,0,circle,312,positive,0.5,5.25,5,1006,FALSE,participant_PG22.csv
PG22,80/20,1,19,161728,square,circle,0.2,0.8,1,circle,311,negative,-0.25,5,5,1007,FALSE,participant_PG22.csv
PG22,80/20,1,20,164094,square,circle,0.2,0.8,1,circle,264,negative,-0.25,4.75,5,1012,FALSE,participant_PG22.csv
PG22,80/20,1,21,166554,square,circle,0.2,0.8,1,circle,363,positive,0.5,5.25,5,1004,FALSE,participant_PG22.csv
PG22,80/20,1,22,168905,circle,square,0.8,0.2,0,circle,247,positive,0.5,5.75,5,1006,FALSE,participant_PG22.csv
PG22,80/20,1,23,171216,square,circle,0.2,0.8,1,circle,211,positive,0.5,6.25,5,1010,FALSE,participant_PG22.csv
PG22,80/20,1,24,173404,circle,square,0.8,0.2,0,circle,98,negative,-0.25,6,5,1006,FALSE,participant_PG22.csv
PG22,80/20,1,25,175778,circle,square,0.8,0.2,0,circle,278,negative,-0.25,5.75,5,1012,FALSE,participant_PG22.csv
PG22,80/20,1,26,178174,circle,square,0.8,0.2,0,circle,313,positive,0.5,6.25,5,1006,FALSE,participant_PG22.csv
PG22,80/20,1,27,180499,square,circle,0.2,0.8,1,circle,230,positive,0.5,6.75,5,1007,FALSE,participant_PG22.csv
PG22,80/20,1,28,182863,square,circle,0.2,0.8,1,circle,264,positive,0.5,7.25,5,1012,FALSE,participant_PG22.csv
PG22,80/20,1,29,185279,square,circle,0.2,0.8,1,circle,313,positive,0.5,7.75,5,1012,FALSE,participant_PG22.csv
PG22,80/20,1,30,187563,square,circle,0.2,0.8,1,circle,198,positive,0.5,8.25,5,1002,FALSE,participant_PG22.csv
PG22,80/20,1,31,189968,square,circle,0.2,0.8,1,circle,313,positive,0.5,8.75,5,1006,FALSE,participant_PG22.csv
PG22,80/20,1,32,192342,square,circle,0.2,0.8,1,circle,282,positive,0.5,9.25,5,1007,FALSE,participant_PG22.csv
PG22,80/20,1,33,194652,circle,square,0.8,0.2,0,circle,214,positive,0.5,9.75,5,1006,FALSE,participant_PG22.csv
PG22,80/20,1,34,197096,circle,square,0.8,0.2,0,circle,343,positive,0.5,10.25,5,1008,FALSE,participant_PG22.csv
PG22,80/20,1,35,199353,square,circle,0.2,0.8,1,circle,166,positive,0.5,10.75,5,1003,FALSE,participant_PG22.csv
PG22,80/20,1,36,201616,circle,square,0.8,0.2,0,circle,167,negative,-0.25,10.5,5,1004,FALSE,participant_PG22.csv
PG22,80/20,1,37,203776,square,circle,0.2,0.8,1,circle,48,positive,0.5,11,5,1011,FALSE,participant_PG22.csv
PG22,80/20,1,38,206129,circle,square,0.8,0.2,0,circle,248,positive,0.5,11.5,5,1014,FALSE,participant_PG22.csv
PG22,80/20,1,39,208632,circle,square,0.8,0.2,0,circle,409,positive,0.5,12,5,1007,FALSE,participant_PG22.csv
PG22,80/20,1,40,211115,square,circle,0.2,0.8,1,circle,382,positive,0.5,12.5,5,1007,FALSE,participant_PG22.csv
PG22,80/20,1,41,213598,circle,square,0.8,0.2,0,circle,380,positive,0.5,13,5,1008,FALSE,participant_PG22.csv
PG22,80/20,1,42,215973,square,circle,0.2,0.8,1,circle,281,positive,0.5,13.5,5,1008,FALSE,participant_PG22.csv
PG22,80/20,1,43,218402,circle,square,0.8,0.2,0,circle,331,positive,0.5,14,5,1005,FALSE,participant_PG22.csv
PG22,80/20,1,44,220852,circle,square,0.8,0.2,0,circle,346,positive,0.5,14.5,5,1008,FALSE,participant_PG22.csv
PG22,80/20,1,45,223484,circle,square,0.8,0.2,0,circle,530,positive,0.5,15,5,1012,FALSE,participant_PG22.csv
PG22,80/20,1,46,225922,circle,square,0.8,0.2,0,circle,342,negative,-0.25,14.75,5,1008,FALSE,participant_PG22.csv
PG22,80/20,1,47,228524,circle,square,0.8,0.2,0,circle,510,positive,0.5,15.25,5,1004,FALSE,participant_PG22.csv
PG22,80/20,1,48,230786,square,circle,0.2,0.8,1,circle,166,positive,0.5,15.75,5,1006,FALSE,participant_PG22.csv
PG22,80/20,1,49,233160,circle,square,0.8,0.2,0,circle,277,positive,0.5,16.25,5,1013,FALSE,participant_PG22.csv
PG22,80/20,1,50,235529,circle,square,0.8,0.2,0,circle,280,negative,-0.25,16,5,1002,FALSE,participant_PG22.csv
PG22,80/20,1,51,237978,circle,square,0.8,0.2,0,circle,348,positive,0.5,16.5,5,1009,FALSE,participant_PG22.csv
PG22,80/20,1,52,240521,circle,square,0.8,0.2,0,circle,447,positive,0.5,17,5,1010,FALSE,participant_PG22.csv
PG22,80/20,1,53,242876,square,circle,0.2,0.8,1,circle,248,positive,0.5,17.5,5,1013,FALSE,participant_PG22.csv
PG22,80/20,1,54,245230,square,circle,0.2,0.8,1,circle,264,negative,-0.25,17.25,5,1003,FALSE,participant_PG22.csv
PG22,80/20,1,55,247492,circle,square,0.8,0.2,0,circle,165,positive,0.5,17.75,5,1008,FALSE,participant_PG22.csv
PG22,80/20,1,56,249886,circle,square,0.8,0.2,0,circle,292,positive,0.5,18.25,5,1015,FALSE,participant_PG22.csv
PG22,80/20,1,57,252224,circle,square,0.8,0.2,0,circle,245,positive,0.5,18.75,5,1005,FALSE,participant_PG22.csv
PG22,80/20,1,58,254501,square,circle,0.2,0.8,1,circle,181,positive,0.5,19.25,5,1008,FALSE,participant_PG22.csv
PG22,80/20,1,59,256905,square,circle,0.2,0.8,1,circle,311,positive,0.5,19.75,5,1002,FALSE,participant_PG22.csv
PG22,80/20,1,60,259268,circle,square,0.8,0.2,0,circle,267,positive,0.5,20.25,5,1007,FALSE,participant_PG22.csv
PG22,50/50,2,1,263649,square,circle,0.5,0.5,1,circle,511,negative,-0.25,20,5,1001,FALSE,participant_PG22.csv
PG22,50/50,2,2,265810,square,circle,0.5,0.5,1,circle,65,negative,-0.25,19.75,5,1003,FALSE,participant_PG22.csv
PG22,50/50,2,3,267993,square,circle,0.5,0.5,0,square,85,positive,0.5,20.25,5,1016,FALSE,participant_PG22.csv
PG22,50/50,2,4,270515,square,circle,0.5,0.5,0,square,428,negative,-0.25,20,5,1002,FALSE,participant_PG22.csv
PG22,50/50,2,5,272753,circle,square,0.5,0.5,1,square,130,positive,0.5,20.5,5,1017,FALSE,participant_PG22.csv
PG22,50/50,2,6,275118,circle,square,0.5,0.5,1,square,264,negative,-0.25,20.25,5,1013,FALSE,participant_PG22.csv
PG22,50/50,2,7,277380,square,circle,0.5,0.5,0,square,162,negative,-0.25,20,5,1009,FALSE,participant_PG22.csv
PG22,50/50,2,8,279603,circle,square,0.5,0.5,0,circle,128,positive,0.5,20.5,5,1007,FALSE,participant_PG22.csv
PG22,50/50,2,9,282114,circle,square,0.5,0.5,0,circle,420,negative,-0.25,20.25,5,1005,FALSE,participant_PG22.csv
PG22,50/50,2,10,284505,square,circle,0.5,0.5,1,circle,281,negative,-0.25,20,5,1014,FALSE,participant_PG22.csv
PG22,50/50,2,11,286772,square,circle,0.5,0.5,0,square,167,positive,0.5,20.5,5,1005,FALSE,participant_PG22.csv
PG22,50/50,2,12,289155,square,circle,0.5,0.5,1,circle,278,positive,0.5,21,5,1006,FALSE,participant_PG22.csv
PG22,50/50,2,13,291533,circle,square,0.5,0.5,0,circle,280,positive,0.5,21.5,5,1013,FALSE,participant_PG22.csv
PG22,50/50,2,14,293856,square,circle,0.5,0.5,1,circle,219,positive,0.5,22,5,1010,FALSE,participant_PG22.csv
PG22,50/50,2,15,296080,circle,square,0.5,0.5,0,circle,118,positive,0.5,22.5,5,1011,FALSE,participant_PG22.csv
PG22,50/50,2,16,298411,square,circle,0.5,0.5,1,circle,234,positive,0.5,23,5,1009,FALSE,participant_PG22.csv
PG22,50/50,2,17,300699,circle,square,0.5,0.5,0,circle,198,negative,-0.25,22.75,5,1007,FALSE,participant_PG22.csv
PG22,50/50,2,18,303018,circle,square,0.5,0.5,0,circle,230,positive,0.5,23.25,5,1001,FALSE,participant_PG22.csv
PG22,50/50,2,19,305444,circle,square,0.5,0.5,0,circle,329,negative,-0.25,23,5,1015,FALSE,participant_PG22.csv
PG22,50/50,2,20,307592,square,circle,0.5,0.5,0,square,49,positive,0.5,23.5,5,1005,FALSE,participant_PG22.csv
PG22,50/50,2,21,309922,circle,square,0.5,0.5,1,square,231,negative,-0.25,23.25,5,1005,FALSE,participant_PG22.csv
PG22,50/50,2,22,312168,circle,square,0.5,0.5,1,square,147,positive,0.5,23.75,5,1006,FALSE,participant_PG22.csv
PG22,50/50,2,23,314292,square,circle,0.5,0.5,0,square,33,negative,-0.25,23.5,5,1001,FALSE,participant_PG22.csv
PG22,50/50,2,24,316502,square,circle,0.5,0.5,0,square,116,negative,-0.25,23.25,5,1005,FALSE,participant_PG22.csv
PG22,50/50,2,25,318717,square,circle,0.5,0.5,0,square,132,negative,-0.25,23,5,1001,FALSE,participant_PG22.csv
PG22,50/50,2,26,321162,square,circle,0.5,0.5,1,circle,348,positive,0.5,23.5,5,1003,FALSE,participant_PG22.csv
PG22,50/50,2,27,323516,square,circle,0.5,0.5,1,circle,261,positive,0.5,24,5,1003,FALSE,participant_PG22.csv
PG22,50/50,2,28,325851,square,circle,0.5,0.5,1,circle,232,negative,-0.25,23.75,5,1013,FALSE,participant_PG22.csv
PG22,50/50,2,29,328157,square,circle,0.5,0.5,0,square,214,positive,0.5,24.25,5,1001,FALSE,participant_PG22.csv
PG22,50/50,2,30,330371,circle,square,0.5,0.5,1,square,130,positive,0.5,24.75,5,1000,FALSE,participant_PG22.csv
PG22,50/50,2,31,332583,square,circle,0.5,0.5,0,square,116,positive,0.5,25.25,5,1005,FALSE,participant_PG22.csv
PG22,50/50,2,32,335064,circle,square,0.5,0.5,1,square,396,negative,-0.25,25,5,1003,FALSE,participant_PG22.csv
PG22,50/50,2,33,337578,circle,square,0.5,0.5,1,square,417,positive,0.5,25.5,5,1014,FALSE,participant_PG22.csv
PG22,50/50,2,34,339948,circle,square,0.5,0.5,1,square,275,positive,0.5,26,5,1001,FALSE,participant_PG22.csv
PG22,50/50,2,35,342283,square,circle,0.5,0.5,0,square,249,negative,-0.25,25.75,5,1001,FALSE,participant_PG22.csv
PG22,50/50,2,36,344599,circle,square,0.5,0.5,1,square,215,positive,0.5,26.25,5,1006,FALSE,participant_PG22.csv
PG22,50/50,2,37,346949,circle,square,0.5,0.5,1,square,249,negative,-0.25,26,5,1004,FALSE,participant_PG22.csv
PG22,50/50,2,38,349392,circle,square,0.5,0.5,1,square,359,negative,-0.25,25.75,5,1003,FALSE,participant_PG22.csv
PG22,50/50,2,39,351734,square,circle,0.5,0.5,0,square,248,positive,0.5,26.25,5,1008,FALSE,participant_PG22.csv
PG22,50/50,2,40,354075,circle,square,0.5,0.5,0,circle,232,negative,-0.25,26,5,1016,FALSE,participant_PG22.csv
PG22,50/50,2,41,356413,circle,square,0.5,0.5,1,square,245,negative,-0.25,25.75,5,1006,FALSE,participant_PG22.csv
PG22,50/50,2,42,358760,square,circle,0.5,0.5,0,square,248,negative,-0.25,25.5,5,1002,FALSE,participant_PG22.csv
PG22,50/50,2,43,361155,circle,square,0.5,0.5,1,square,299,positive,0.5,26,5,1011,FALSE,participant_PG22.csv
PG22,50/50,2,44,363484,square,circle,0.5,0.5,0,square,235,negative,-0.25,25.75,5,1004,FALSE,participant_PG22.csv
PG22,50/50,2,45,365846,square,circle,0.5,0.5,0,square,249,negative,-0.25,25.5,5,1016,FALSE,participant_PG22.csv
PG22,50/50,2,46,368180,square,circle,0.5,0.5,1,circle,232,negative,-0.25,25.25,5,1015,FALSE,participant_PG22.csv
PG22,50/50,2,47,370502,circle,square,0.5,0.5,0,circle,215,positive,0.5,25.75,5,1010,FALSE,participant_PG22.csv
PG22,50/50,2,48,372875,square,circle,0.5,0.5,0,square,268,negative,-0.25,25.5,5,1014,FALSE,participant_PG22.csv
PG22,50/50,2,49,375338,square,circle,0.5,0.5,0,square,363,positive,0.5,26,5,1010,FALSE,participant_PG22.csv
PG22,50/50,2,50,377815,square,circle,0.5,0.5,1,circle,378,positive,0.5,26.5,5,1009,FALSE,participant_PG22.csv
PG22,50/50,2,51,380170,circle,square,0.5,0.5,0,circle,247,negative,-0.25,26.25,5,1011,FALSE,participant_PG22.csv
PG22,50/50,2,52,382297,circle,square,0.5,0.5,1,square,34,positive,0.5,26.75,5,1004,FALSE,participant_PG22.csv
PG22,50/50,2,53,384838,square,circle,0.5,0.5,0,square,443,negative,-0.25,26.5,5,1006,FALSE,participant_PG22.csv
PG22,50/50,2,54,387221,square,circle,0.5,0.5,1,circle,299,positive,0.5,27,5,1000,FALSE,participant_PG22.csv
PG22,50/50,2,55,389642,square,circle,0.5,0.5,0,square,312,positive,0.5,27.5,5,1014,FALSE,participant_PG22.csv
PG22,50/50,2,56,391899,square,circle,0.5,0.5,1,circle,165,negative,-0.25,27.25,5,1014,FALSE,participant_PG22.csv
PG22,50/50,2,57,393999,square,circle,0.5,0.5,,,,,0,27.25,5,0,FALSE,participant_PG22.csv
PG22,50/50,2,57,395001,square,circle,0.5,0.5,,,,,0,27.25,5,1001,FALSE,participant_PG22.csv
PG22,50/50,2,58,397093,circle,square,0.5,0.5,,,,,0,27.25,5,2,FALSE,participant_PG22.csv
PG22,50/50,2,58,398096,circle,square,0.5,0.5,,,,,0,27.25,5,1005,FALSE,participant_PG22.csv
PG22,50/50,2,59,400553,circle,square,0.5,0.5,0,circle,361,positive,0.5,27.75,5,1009,FALSE,participant_PG22.csv
PG22,50/50,2,60,402933,square,circle,0.5,0.5,1,circle,295,negative,-0.25,27.5,5,1000,FALSE,participant_PG22.csv
PG23,Practice,0,1,60477,square,circle,0.2,0.8,,,,,0,0,5,0,TRUE,participant_PG23.csv
PG23,Practice,0,1,61485,square,circle,0.2,0.8,,,,,0,0,5,1008,TRUE,participant_PG23.csv
PG23,Practice,0,2,64046,square,circle,0.2,0.8,0,square,529,negative,0,0,5,1008,TRUE,participant_PG23.csv
PG23,Practice,0,3,66105,circle,square,0.8,0.2,,,,,0,0,5,0,TRUE,participant_PG23.csv
PG23,Practice,0,3,67106,circle,square,0.8,0.2,,,,,0,0,5,1000,TRUE,participant_PG23.csv
PG23,Practice,0,4,69791,square,circle,0.2,0.8,1,circle,650,positive,0,0,5,1006,TRUE,participant_PG23.csv
PG23,Practice,0,5,71945,square,circle,0.2,0.8,1,circle,114,positive,0,0,5,1009,TRUE,participant_PG23.csv
PG23,Practice,0,6,74286,square,circle,0.2,0.8,0,square,314,negative,0,0,5,1003,TRUE,participant_PG23.csv
PG23,Practice,0,7,77000,square,circle,0.2,0.8,1,circle,678,positive,0,0,5,1006,TRUE,participant_PG23.csv
PG23,Practice,0,8,79025,square,circle,0.2,0.8,,,,,0,0,5,0,TRUE,participant_PG23.csv
PG23,Practice,0,8,80040,square,circle,0.2,0.8,,,,,0,0,5,1015,TRUE,participant_PG23.csv
PG23,Practice,0,9,82515,square,circle,0.2,0.8,1,circle,443,negative,0,0,5,1006,TRUE,participant_PG23.csv
PG23,Practice,0,10,84660,circle,square,0.8,0.2,0,circle,114,negative,0,0,5,1004,TRUE,participant_PG23.csv
PG23,Practice,0,11,87455,circle,square,0.8,0.2,1,square,758,negative,0,0,5,1007,TRUE,participant_PG23.csv
PG23,Practice,0,12,89878,square,circle,0.2,0.8,0,square,394,negative,0,0,5,1001,TRUE,participant_PG23.csv
PG23,Practice,0,13,92132,circle,square,0.8,0.2,1,square,213,negative,0,0,5,1010,TRUE,participant_PG23.csv
PG23,Practice,0,14,94333,square,circle,0.2,0.8,0,square,165,negative,0,0,5,1009,TRUE,participant_PG23.csv
PG23,Practice,0,15,96682,circle,square,0.8,0.2,1,square,316,negative,0,0,5,1014,TRUE,participant_PG23.csv
PG23,Practice,0,16,98729,square,circle,0.2,0.8,,,,,0,0,5,0,TRUE,participant_PG23.csv
PG23,Practice,0,16,99738,square,circle,0.2,0.8,,,,,0,0,5,1009,TRUE,participant_PG23.csv
PG23,Practice,0,17,101769,square,circle,0.2,0.8,,,,,0,0,5,0,TRUE,participant_PG23.csv
PG23,Practice,0,17,102780,square,circle,0.2,0.8,,,,,0,0,5,1011,TRUE,participant_PG23.csv
PG23,Practice,0,18,104970,square,circle,0.2,0.8,1,circle,148,negative,0,0,5,1007,TRUE,participant_PG23.csv
PG23,Practice,0,19,107054,circle,square,0.8,0.2,0,circle,50,positive,0,0,5,1013,TRUE,participant_PG23.csv
PG23,Practice,0,20,109884,circle,square,0.8,0.2,0,circle,778,positive,0,0,5,1014,TRUE,participant_PG23.csv
PG23,80/20,1,1,115535,circle,square,0.8,0.2,1,square,777,positive,0.5,0.5,5,1003,FALSE,participant_PG23.csv
PG23,80/20,1,2,118035,square,circle,0.2,0.8,0,square,466,negative,-0.25,0.25,5,1010,FALSE,participant_PG23.csv
PG23,80/20,1,3,120481,circle,square,0.8,0.2,1,square,412,positive,0.5,0.75,5,1006,FALSE,participant_PG23.csv
PG23,80/20,1,4,122698,square,circle,0.2,0.8,0,square,181,negative,-0.25,0.5,5,1009,FALSE,participant_PG23.csv
PG23,80/20,1,5,124859,circle,square,0.8,0.2,0,circle,133,positive,0.5,1,5,1004,FALSE,participant_PG23.csv
PG23,80/20,1,6,126884,circle,square,0.8,0.2,,,,,0,1,5,0,FALSE,participant_PG23.csv
PG23,80/20,1,6,127900,circle,square,0.8,0.2,,,,,0,1,5,1015,FALSE,participant_PG23.csv
PG23,80/20,1,7,130000,square,circle,0.2,0.8,1,circle,66,positive,0.5,1.5,5,1008,FALSE,participant_PG23.csv
PG23,80/20,1,8,132078,circle,square,0.8,0.2,0,circle,49,positive,0.5,2,5,1009,FALSE,participant_PG23.csv
PG23,80/20,1,9,134161,square,circle,0.2,0.8,1,circle,47,positive,0.5,2.5,5,1010,FALSE,participant_PG23.csv
PG23,80/20,1,10,136261,square,circle,0.2,0.8,1,circle,67,positive,0.5,3,5,1008,FALSE,participant_PG23.csv
PG23,80/20,1,11,138673,square,circle,0.2,0.8,1,circle,380,positive,0.5,3.5,5,1003,FALSE,participant_PG23.csv
PG23,80/20,1,12,141219,circle,square,0.8,0.2,0,circle,511,positive,0.5,4,5,1009,FALSE,participant_PG23.csv
PG23,80/20,1,13,143534,circle,square,0.8,0.2,0,circle,280,positive,0.5,4.5,5,1005,FALSE,participant_PG23.csv
PG23,80/20,1,14,145805,circle,square,0.8,0.2,0,circle,232,positive,0.5,5,5,1011,FALSE,participant_PG23.csv
PG23,80/20,1,15,148107,square,circle,0.2,0.8,1,circle,278,positive,0.5,5.5,5,1001,FALSE,participant_PG23.csv
PG23,80/20,1,16,150234,square,circle,0.2,0.8,1,circle,100,positive,0.5,6,5,1004,FALSE,participant_PG23.csv
PG23,80/20,1,17,152744,circle,square,0.8,0.2,0,circle,479,positive,0.5,6.5,5,1003,FALSE,participant_PG23.csv
